Time,ACC_X,ACC_Y,ACC_Z
0,0.241597255071004,0.127896179755529,9.78568108876546
0.005,0.207590476552479,0.140280381403926,9.77687581309369
0.01,0.149981396266567,0.158668172424251,9.74104708893946
0.015,0.158699398846674,0.137824905489395,9.74355301480508
0.02,0.215559009716718,0.119584317782536,9.75199242482351
0.025,0.23725690709369,0.105320505560991,9.78002038872531
0.03,0.206534086430145,0.0913345001813757,9.81971232366274
0.035,0.171120488968536,0.130630941446677,9.77834543354224
0.04,0.181899025556427,0.144575441957487,9.75622089101399
0.045,0.218863792938761,0.116785415246976,9.78581690680539
0.05,0.217807800592108,0.111261104246279,9.76743116823553
0.055,0.185880713818887,0.135164200017498,9.75922256236522
0.06,0.166570607850708,0.141057993020386,9.77753564408056
0.065,0.17963238608212,0.142710052397956,9.76014825038847
0.07,0.198525320240415,0.119524152427601,9.74964082187289
0.075,0.177471310794903,0.119924356335863,9.75060495940522
0.08,0.14695563142212,0.157083538119906,9.75019066611112
0.085,0.174892721641931,0.154816475953808,9.73500142645513
0.09,0.229889239893911,0.108235083406058,9.7605794496636
0.095,0.212919908340831,0.0979592368371497,9.75946739231246
0.1,0.169507871933425,0.142770671718212,9.75718311659466
0.105,0.160186091449885,0.153745717654569,9.75982346112932
0.11,0.185903572123309,0.118754410601285,9.74866146002529
0.115,0.21807079413954,0.103992055456023,9.75192698487354
0.12,0.200180823235739,0.117496729565826,9.74661658065494
0.125,0.160286399105101,0.135921522174026,9.75940435397437
0.13,0.145641279420941,0.136529763713232,9.78198499324108
0.135,0.172699947652755,0.123102584897228,9.78766359462045
0.14,0.206360655192035,0.107776662379296,9.78536616135529
0.145,0.195846663964114,0.127420934170894,9.7760758574871
0.15,0.158171286041086,0.161513718193228,9.74774219235507
0.155,0.166259641391258,0.17292492938426,9.75467473966818
0.16,0.215064388999753,0.135816924427384,9.78505918033821
0.165,0.215362181179003,0.100786135361782,9.81391842946561
0.17,0.171905543938955,0.133755789148045,9.795776476391
0.175,0.143346775473204,0.183731355430651,9.75881866636984
0.18,0.163406341230149,0.179090203281804,9.78064249998893
0.185,0.193278192991757,0.127765830137563,9.78315905992457
0.19,0.179741104790116,0.107142400923998,9.77372379801987
0.195,0.162222507018998,0.0993780524716252,9.76698995274668
0.2,0.170305215097098,0.136888292508117,9.74851596257373
0.205,0.197700143607963,0.178357099944712,9.75165658503429
0.21,0.20398264477009,0.125901016876845,9.77622072093762
0.215,0.17135992670842,0.136620612844345,9.7688158640708
0.22,0.148472625956926,0.213177584116267,9.73585076280993
0.225,0.15867766868099,0.147470901800365,9.75758339635337
0.23,0.18002460838923,0.0616075829288579,9.77831749962851
0.235,0.207742315987272,0.0690345065442865,9.77234563018507
0.24,0.187831404978121,0.13351730000748,9.75784579784719
0.245,0.145813773234663,0.166384875696244,9.75430067477839
0.25,0.169684820454934,0.120885534131068,9.77687389622686
0.255,0.202899281297995,0.100849476723194,9.77927678553748
0.26,0.202530489545549,0.0878189549733371,9.78367604711572
0.265,0.17721375722111,0.111704872624734,9.77165381435483
0.27,0.168852827729835,0.156344712071813,9.74726504745652
0.275,0.201483979812448,0.156714052164959,9.7643074583854
0.28,0.220968359650894,0.127730176906016,9.78580978512186
0.285,0.189101763155158,0.104671675476639,9.77606125360499
0.29,0.1572578026371,0.131590111933708,9.74300336047363
0.295,0.172087039559606,0.165246235051282,9.74880441689012
0.3,0.210394494634163,0.141359497595523,9.78492636679036
0.305,0.221564710611675,0.121455273945568,9.7948973632624
0.31,0.171420313355668,0.150617432335595,9.775358552005
0.315,0.11882855467692,0.164445317858835,9.76478259374084
0.32,0.153399800913367,0.132150260114809,9.76890389065191
0.325,0.222008153346554,0.0837160532044063,9.7811165256914
0.33,0.223159487468209,0.0985859929558883,9.79295838491136
0.335,0.173173065182794,0.159816291088663,9.77185657145696
0.34,0.150542064067812,0.151608590740259,9.74698248731971
0.345,0.185437190529,0.104187064817793,9.76156062748007
0.35,0.225878492688463,0.0764586617170141,9.7932001593506
0.355,0.196627938924347,0.0971548625688989,9.7720489347152
0.36,0.142048657101505,0.1485227358312,9.74269714081053
0.365,0.152406892706057,0.156877553332847,9.75242446938256
0.37,0.199501415273017,0.138601947675491,9.78145004054415
0.375,0.213569122594615,0.119677464859543,9.80162258035944
0.38,0.172600609107156,0.137754635268069,9.77407997910289
0.385,0.137476074239964,0.170047660916698,9.72967689732952
0.39,0.169078656290556,0.131161906083572,9.75663198655877
0.395,0.220108113064437,0.0902205337562523,9.78878495731445
0.4,0.203843290818678,0.119292847103835,9.76829580183981
0.405,0.162447829238866,0.14222777428734,9.76026452878331
0.41,0.155239032787356,0.140937859396517,9.76073533215058
0.415,0.178644362130912,0.0991371950433631,9.77689438989435
0.42,0.216269744367403,0.0671098188275437,9.79911673905948
0.425,0.20433817719546,0.11636285348485,9.77892246809708
0.43,0.156223020455128,0.186596240470549,9.73493398174895
0.435,0.148856019986905,0.163044185466979,9.74339882493011
0.44,0.173811446303649,0.111565842896751,9.77110908882253
0.445,0.206860385851971,0.104151412310478,9.79521712524554
0.45,0.186471479647768,0.116988233087401,9.79195478952098
0.455,0.141052853977372,0.169591003694318,9.75771234239121
0.46,0.166836928691579,0.172234864749108,9.76004565625295
0.465,0.213090912324772,0.109953282102149,9.79799788186878
0.47,0.212131951735725,0.101310067702861,9.79839838713607
0.475,0.178413448007895,0.142195253363755,9.76533217675116
0.48,0.148774780313532,0.170063359208849,9.7498280252544
0.485,0.160985310287532,0.156877723622339,9.76214572706169
0.49,0.196324434309723,0.121761201117053,9.77834607610295
0.495,0.192768824137356,0.115801115486673,9.76150517689322
0.5,0.169201503995914,0.144874781346206,9.75191942257896
0.505,0.170216260784877,0.146881038220722,9.77127417553813
0.51,0.202330162806033,0.116155609238664,9.78943169894768
0.515,0.217747006865419,0.0957540390168276,9.79695702818694
0.52,0.183074262798195,0.116916668890237,9.78358880799244
0.525,0.151414974474157,0.169220952850005,9.73900306335952
0.53,0.186799325162928,0.157463167915592,9.74615925486154
0.535,0.226185481985936,0.0831720960938792,9.78164015657218
0.54,0.200355101418405,0.0901838123128182,9.78623121480461
0.545,0.150599240398792,0.15773206562027,9.7468987229392
0.55,0.149585921684901,0.168371077649521,9.75655945263487
0.555,0.184833138585393,0.123788794010091,9.81205589517086
0.56,0.204931837620047,0.0976740375911872,9.79499015096122
0.565,0.194824727495584,0.115798154882671,9.75086821820272
0.57,0.163785426748194,0.142119452710738,9.76258978010788
0.575,0.178210775378769,0.130411589745303,9.7839943391716
0.58,0.231219189924847,0.0941130310072621,9.80163706823435
0.585,0.217619336922745,0.106021230414642,9.78554102744039
0.59,0.162812454658657,0.146077038756784,9.75166786758708
0.595,0.15148778892226,0.146566176465632,9.75515966666288
0.6,0.181518471738792,0.105342859258534,9.77761969202511
0.605,0.203272864395486,0.102303660212974,9.78067142736035
0.61,0.192991633138863,0.151681590540005,9.7745533984667
0.615,0.165206628654246,0.176488459385171,9.78042245646574
0.62,0.158402340397817,0.163223075810876,9.77507894985758
0.625,0.18486854571918,0.14242518408175,9.76208577347196
0.63,0.201542344054643,0.121492850826689,9.77031300598245
0.635,0.183850429489966,0.134390439675881,9.77338083905273
0.64,0.164684878447382,0.152972871211626,9.75920248580652
0.645,0.175625349610206,0.122389615860642,9.7607934056819
0.65,0.219724153746754,0.0801118326842636,9.78035899171422
0.655,0.223022114886162,0.105227563817197,9.77357141714468
0.66,0.177969153159209,0.14685648180203,9.75642969063259
0.665,0.154209678165478,0.134071464029611,9.75989009693051
0.67,0.165262346649817,0.10501763852246,9.77697048590551
0.675,0.202580979161047,0.110498445199315,9.77981996205264
0.68,0.210627175029623,0.139235004066102,9.76089574166659
0.685,0.167870677153101,0.151010833487274,9.7497858087336
0.69,0.150612499641135,0.171331919078155,9.74224945386801
0.695,0.179849667477671,0.166045626456171,9.74365756831033
0.7,0.206555007621066,0.117638787818744,9.78138796439828
0.705,0.191267110568324,0.115173823680842,9.79225174846708
0.71,0.146259351028062,0.14778233392905,9.7597359871855
0.715,0.146608495661067,0.147905042665325,9.75619838332036
0.72,0.199804960678668,0.11915346546308,9.77612812990784
0.725,0.211427928287207,0.116291280864558,9.78917368175637
0.73,0.174559227303879,0.142654917500699,9.77469316526029
0.735,0.148668789202961,0.155901198942934,9.75596033948597
0.74,0.172405178813247,0.155987349699925,9.76221681951116
0.745,0.217853857845862,0.148003434368136,9.78118844027473
0.75,0.193564506139134,0.143451651934278,9.7746945347192
0.755,0.144806901826543,0.149063364647603,9.74987827593374
0.76,0.153650076131399,0.122195489003633,9.73036503009796
0.765,0.21864966519052,0.0955117777634268,9.7698125093414
0.77,0.230894908950164,0.115090256733515,9.81225374152773
0.775,0.175017857216002,0.158181754620412,9.76105930936522
0.78,0.14004493614628,0.193484519125346,9.72568352481965
0.785,0.157825984425744,0.148330198349241,9.76164207303929
0.79,0.199602317538723,0.0784563392268652,9.77582590437152
0.795,0.202730724875551,0.0818512648797479,9.77382490201207
0.8,0.172492966236256,0.112027387536892,9.79803086333319
0.805,0.148071144533204,0.137826140383265,9.77132972777461
0.81,0.163823716816471,0.125239497632276,9.75452182569188
0.815,0.200096133809085,0.106406576265945,9.79018138092145
0.82,0.201060734518573,0.117230021108566,9.79150363475437
0.825,0.169473766138278,0.151084065959059,9.76485070143081
0.83,0.151781299918053,0.143956559029586,9.76546410004938
0.835,0.169533425269979,0.109609352841633,9.78635155797768
0.84,0.202459684284811,0.107195199818949,9.78041696677605
0.845,0.183055127301451,0.128689892634607,9.76929568358713
0.85,0.134582711011172,0.164062599803393,9.75425981668326
0.855,0.155042511872983,0.150454010789902,9.75971730038402
0.86,0.202266264633416,0.116578734927052,9.7811888668714
0.865,0.207485106107801,0.107533779385374,9.76326570930481
0.87,0.176912076969759,0.163721965381309,9.74080777164832
0.875,0.133070799617804,0.194599500007382,9.74872837017795
0.88,0.161635418699043,0.156098720591326,9.74852965428137
0.885,0.221016764766075,0.0863248123546308,9.77666138561137
0.89,0.201407605488301,0.0882823604482085,9.7735544675268
0.895,0.149177889738932,0.184646329755763,9.71877873822543
0.9,0.150827508892458,0.181866336304502,9.74992900945399
0.905,0.201690456208068,0.139281918186113,9.76236935827972
0.91,0.230886451187476,0.111672310397516,9.76736635006175
0.915,0.206955749818505,0.11671556664265,9.79469144234328
0.92,0.160919436281002,0.164231637000229,9.7525618380867
0.925,0.163706454384536,0.150839001905143,9.74931321169849
0.93,0.207333362620368,0.0925215951770014,9.77825514115635
0.935,0.211697492398353,0.126830772709435,9.76678926954476
0.94,0.168372825644554,0.194456932168126,9.76720207210236
0.945,0.14980166171938,0.18610388832087,9.77002794785925
0.95,0.188383920075375,0.157273031915109,9.777486636619
0.955,0.234062236297345,0.105675670929503,9.79636858233044
0.96,0.2073759179993,0.100834741251618,9.77778041085253
0.965,0.170051225368075,0.128811758143507,9.76803771092837
0.97,0.168263296583907,0.134559623085198,9.78391067581572
0.975,0.190241320837396,0.138727877969072,9.77049893509835
0.98,0.211547700210178,0.101987524149904,9.75242779413145
0.985,0.173477032211417,0.136309304801155,9.74626818794925
0.99,0.130729338468642,0.194547455230196,9.76785090106779
0.995,0.169989373170738,0.142660529004906,9.79540997254559
1,0.22639968852873,0.103410863732031,9.77957562379393
1.005,0.216477201255139,0.0984578995123616,9.77443820719442
1.01,0.176843645574157,0.121474000478487,9.78031466190468
1.015,0.14690456875008,0.198846262011637,9.77732651617976
1.02,0.172094543048437,0.19335941400511,9.77472780904058
1.025,0.221766351392999,0.117555586065213,9.76830900899544
1.03,0.217549000351294,0.0956831233169854,9.77888740059052
1.035,0.160856014861226,0.130400574382174,9.76612706200551
1.04,0.133621865790881,0.159800653864173,9.7473900324798
1.045,0.184613232115367,0.117594419209807,9.77233258024918
1.05,0.229104723694298,0.0951532853494572,9.79693269274671
1.055,0.179593262618534,0.148219128873973,9.78218191037522
1.06,0.12462572717109,0.188854457654888,9.75060073735198
1.065,0.15744247059454,0.162064551781001,9.76441941502388
1.07,0.213120596466908,0.0867498123047654,9.78198522052223
1.075,0.22045161292022,0.105363269891429,9.77651855918749
1.08,0.182685718707587,0.16431481568943,9.7675320300088
1.085,0.146378655171817,0.134374059818889,9.75351724856219
1.09,0.180149344323508,0.112166305708463,9.75760575473231
1.095,0.237285768239476,0.115340892288263,9.77655970713433
1.1,0.232746018233651,0.129727589950773,9.77914482525066
1.105,0.185522366165519,0.167087585909525,9.74611748142333
1.11,0.149827361839658,0.145831390181504,9.73600800298102
1.115,0.17819544138755,0.0870839433520809,9.78090817988991
1.12,0.222165357335811,0.0973598495933132,9.80446355806171
1.125,0.175461543644034,0.166291437403864,9.76142714234668
1.13,0.116420213977343,0.180645523326245,9.74514453300069
1.135,0.153380030523216,0.121169474847624,9.77491460934456
1.14,0.212490949406577,0.0872428030985951,9.78382221185846
1.145,0.198486051590314,0.100643063743228,9.78280126964031
1.15,0.163095249133572,0.143489196138942,9.76046150037319
1.155,0.152731199654177,0.18063454789951,9.72869969037724
1.16,0.178235515287815,0.128711323092967,9.75297429640283
1.165,0.215063215745852,0.0709546970078634,9.81412142527607
1.17,0.203270834369172,0.117517700762929,9.78846001703578
1.175,0.146902156010844,0.187859229177749,9.7489958359771
1.18,0.136876014277573,0.165039520641589,9.7643714164051
1.185,0.204341642887519,0.117778578827474,9.79334276929021
1.19,0.230205572124185,0.109465752468792,9.77550169434402
1.195,0.176119374556112,0.143105261815506,9.73231676966648
1.2,0.142981596822666,0.190357991007302,9.70990353216628
1.205,0.163990377394996,0.157739460919682,9.73451262529528
1.21,0.214325576689197,0.0927850118892444,9.79982516648329
1.215,0.229345893952777,0.110006661254463,9.80913360481982
1.22,0.182199685462878,0.158947098885433,9.76267864776823
1.225,0.160271373614661,0.157326540600799,9.75212989345563
1.23,0.187940054908285,0.138353076579716,9.77366995361722
1.235,0.204064791370862,0.131146868113586,9.76022103035128
1.24,0.184792858105735,0.127805150958116,9.7576036518564
1.245,0.152264022001281,0.139356404773781,9.77669259276063
1.25,0.166666621738689,0.129278258826628,9.77847659328283
1.255,0.213313053819204,0.100447839556135,9.77245707074232
1.26,0.219933955515712,0.0807736682000422,9.77056867227643
1.265,0.179056245644904,0.154753341383666,9.74520581473305
1.27,0.147682685927233,0.202351023281997,9.73236737200164
1.275,0.167268146167398,0.123705456350052,9.77121010119761
1.28,0.200845974257759,0.071632302095947,9.79229162016596
1.285,0.19614476725497,0.110990236218907,9.76766895857729
1.29,0.160679282738319,0.156019645162308,9.73813344312256
1.295,0.1488456447915,0.148952261087759,9.74125241317527
1.3,0.180105790597489,0.120779356469504,9.76434044234977
1.305,0.218567991098988,0.11286390298259,9.78425393328475
1.31,0.195401244193097,0.114797904177203,9.79128832774399
1.315,0.148627627304599,0.119458310395373,9.77121078737574
1.32,0.156351518512558,0.119279348422121,9.76839111303337
1.325,0.192863156977393,0.0966517808845704,9.80233355416556
1.33,0.20613029742467,0.109484987892861,9.78859739831666
1.335,0.184876173209536,0.165866789323576,9.74424524272944
1.34,0.157882313651397,0.177673342962024,9.73688639335312
1.345,0.173518127874792,0.130566933461458,9.76880922511533
1.35,0.211577275246925,0.100585377140319,9.80049363789443
1.355,0.219826096091389,0.144570951534837,9.77765150574523
1.36,0.191537692165641,0.194418761390415,9.73833790426823
1.365,0.159772695051192,0.151350243638819,9.74921540502734
1.37,0.172221707298352,0.0871424518648543,9.77178140947047
1.375,0.209814638231485,0.0935029502364011,9.76533650668624
1.38,0.191593125881197,0.12149190047537,9.7533305397794
1.385,0.142542265723959,0.163214789689668,9.74096265576388
1.39,0.157043776344121,0.175223192421269,9.74228186751718
1.395,0.205898837346618,0.128821898492733,9.78250985613326
1.4,0.201270662544122,0.111069136611822,9.78328980775041
1.405,0.162313263180159,0.133136920666397,9.73262374503695
1.41,0.146657701959878,0.146498270214457,9.72810198263913
1.415,0.169269113977207,0.136684360521763,9.7723045640207
1.42,0.21266656574712,0.100655133913488,9.79265785771615
1.425,0.221705933521122,0.0993683784779591,9.76259641529154
1.43,0.187585133931676,0.148251411141723,9.72304920609271
1.435,0.162294435983747,0.150056495322328,9.73196251406897
1.44,0.168247154707932,0.11056147277771,9.7712254620185
1.445,0.194545020556206,0.0883277051644318,9.80132955042831
1.45,0.198067331735425,0.0949724724345387,9.80016253805766
1.455,0.166410635446831,0.126060447026821,9.76032356808473
1.46,0.165796158472345,0.132348164786012,9.7657185045458
1.465,0.202206406158382,0.111035096868576,9.79243540690976
1.47,0.217930035507845,0.114373783714531,9.76527377273401
1.475,0.19494607325961,0.14927889433182,9.75001436965061
1.48,0.155931891512328,0.165219131298624,9.76781617724996
1.485,0.156064872748961,0.138710197583084,9.77300597426731
1.49,0.190975884029464,0.106985503174988,9.77138727419774
1.495,0.197475318077327,0.13242443194411,9.76501472604967
1.5,0.183655766868913,0.182818525417081,9.75143378400074
1.505,0.177400593859563,0.187184258151901,9.7309049442945
1.51,0.186077711432198,0.114571418231033,9.74879537430191
1.515,0.205793687098572,0.0624874649065699,9.78159119618306
1.52,0.179948225230146,0.129712989045306,9.77257051969
1.525,0.140000404390667,0.179012214133423,9.75305772790696
1.53,0.158590752592963,0.154130006859416,9.75409099268286
1.535,0.199407703962767,0.118435486947782,9.77217049536075
1.54,0.205830308413579,0.114839805856433,9.76513724949617
1.545,0.169707575963009,0.155867909822899,9.74284815664431
1.55,0.145641516373207,0.125444909531888,9.7346258425335
1.555,0.186727576106336,0.0789424277606587,9.75963456883061
1.56,0.233234206591375,0.118458432565085,9.80762181058297
1.565,0.215793624495596,0.145097684546078,9.80360800102897
1.57,0.164473976470186,0.155040193680955,9.75904621700336
1.575,0.144189985348523,0.145124271652367,9.73040716493912
1.58,0.179205130700303,0.11151833247111,9.73168023599147
1.585,0.212014295126267,0.072480157945165,9.80736408754547
1.59,0.193589415777068,0.0918025365107645,9.8250667258776
1.595,0.15532627721457,0.184931782720626,9.75881752704595
1.6,0.154237383948489,0.205686689189813,9.73548257418619
1.605,0.200990327573255,0.113347931019159,9.78062862511998
1.61,0.223007908674459,0.0895813612417434,9.80861717828049
1.615,0.178006827911681,0.173808648709617,9.74946115242674
1.62,0.141713558088252,0.177111351127366,9.71482433528415
1.625,0.174293038059053,0.117510345586844,9.75311468089622
1.63,0.229071748765294,0.0994104251775118,9.78207946965299
1.635,0.232292365248962,0.12422140939382,9.76526830053186
1.64,0.186256373402992,0.144913370234452,9.76014343246309
1.645,0.154314731728648,0.150690807917592,9.76581122101634
1.65,0.188225445410769,0.0964065788167593,9.76736458646388
1.655,0.224065457182111,0.0580265872557206,9.74308087949933
1.66,0.19530651728569,0.100682103216348,9.76971243395174
1.665,0.147630921942299,0.148946496878027,9.7801870655789
1.67,0.138762986418603,0.172485710504486,9.75252947578284
1.675,0.169495420991279,0.126233241353288,9.77714035859099
1.68,0.200943966555744,0.0952484813974738,9.79990963845924
1.685,0.191625308525626,0.124703195708785,9.78255252046537
1.69,0.146074960739921,0.185665439016899,9.73641919812058
1.695,0.156928904248129,0.177455933863157,9.7404442495623
1.7,0.202462250214118,0.140003682135481,9.77507445072551
1.705,0.19353915196881,0.164311805992117,9.7644265199006
1.71,0.18828570515258,0.176864004282314,9.75916317104652
1.715,0.158139301593167,0.176095851037537,9.73068381163394
1.72,0.189383997286502,0.125038070652838,9.71074040093928
1.725,0.280302123838556,0.0622880935281926,9.77331419441861
1.73,0.3173340526038,0.107917455125894,10.1101586643942
1.735,0.231160651216103,-0.200592769861032,10.3416823829056
1.74,0.217352815465735,-0.463762802345862,10.4824376211106
1.745,0.373622557755321,0.25535587418888,10.9442364335537
1.75,0.507152028380195,0.793080243195358,11.3491012508467
1.755,0.416026535950765,0.592178377331352,11.658392280807
1.76,-0.269739395492072,0.203122161216041,11.812806535605
1.765,-0.651309090774673,0.318882214922948,12.5436807682616
1.77,-0.821588292817184,0.30664772463518,13.3182454425708
1.775,-0.810235776158952,0.285847320304039,13.649920122058
1.78,-0.79888325950072,0.265046915972899,13.9815948015451
1.785,-0.850217295314362,0.358518261951372,19.3442345346578
1.79,-0.489038181937071,-0.000993656373477848,19.8811872853777
1.795,-0.143328320278499,-0.331894629909227,20.1233966776297
1.8,0.461929229486907,-0.659036907139334,19.579083513916
1.805,0.489401223626399,-0.591064690684472,19.2977198647316
1.81,0.516873217765893,-0.523092474229608,19.0163562155472
1.815,0.57009082513859,0.365769427396611,14.9499412915298
1.82,0.461766577953891,0.266338889516928,14.0444679810343
1.825,0.40120641829359,0.246240481465126,13.8588452075895
1.83,0.340646258633287,0.226142073413323,13.6732224341448
1.835,-0.369444866358599,0.722088870202895,12.2298070030267
1.84,-0.133804816069837,0.420198275176093,12.5647142251192
1.845,-0.0361635597017727,0.365202794129991,12.6609111684473
1.85,0.137512019440127,0.287447691420611,11.525611980224
1.855,-0.0237019476854596,0.391260882091061,11.4027164366778
1.86,-0.291426765105154,0.300962061683524,11.3299035789856
1.865,-0.146750466839606,-0.387273150890189,11.3299079192346
1.87,0.0125628967040283,-0.289150812831264,10.5064501475447
1.875,0.175584216425351,0.127883339861255,9.97202169230249
1.88,0.193055093819469,0.0359989209025009,10.0262830807743
1.885,0.114826187308234,0.0484374324565656,9.80546750550943
1.89,-0.210201676197969,0.240072598663485,10.220863149732
1.895,-0.213853177854969,0.250873373656581,10.1140506669924
1.9,-0.292153466428873,0.138516565002432,9.9495085564392
1.905,-0.253222124953869,0.138917752989506,9.82740583832477
1.91,-0.214290783478863,0.139318940976581,9.70530312021034
1.915,-0.129130046224485,0.263885646903605,8.60870346989109
1.92,-0.172667042057869,0.362068754690433,8.52610521720423
1.925,-0.182904728759183,0.359839075415488,8.52894341361706
1.93,-0.193142415460496,0.357609396140544,8.5317816100299
1.935,-0.20338010216181,0.355379716865599,8.53461980644273
1.94,-0.309914826799089,0.234030395645413,8.59713508367418
1.945,-0.456671901707081,0.337852502414174,8.43704653231384
1.95,-0.470495752193991,0.332816222008424,8.30531819615674
1.955,-0.408202385162418,0.217023121247967,8.11679343592365
1.96,-0.271261446053421,0.2206659983736,8.12534108065898
1.965,-0.190628224526041,0.270809690764985,8.15475749289771
1.97,-0.176162973827034,0.204707101502505,8.12267317748743
1.975,-0.229489492562209,0.123050301031491,8.28933351715579
1.98,-0.315046569529651,0.18317555962402,8.37203909005993
1.985,-0.321814166554577,0.191382509114067,8.36760894155208
1.99,-0.328533855788547,0.199531361643095,8.36321015404695
1.995,-0.335253545022518,0.207680214172123,8.35881136654181
2,-0.138948919195603,0.140900866126654,8.20290424933473
2.005,-0.140481468417783,0.124955159879587,8.05542821380644
2.01,-0.240736984508125,0.109628186802629,8.17385374461638
2.015,-0.27233264499734,0.0959339107582555,8.19567046758935
2.02,-0.32566051479863,0.16340876697139,8.29312867394853
2.025,-0.297336151101075,0.117982166943267,8.31994392819596
2.03,-0.271990829121976,0.0306017494360172,8.1972899218694
2.035,-0.340876475573437,0.176247103783366,8.22454368428178
2.04,-0.381419608274336,0.243166905646912,8.15118949826089
2.045,-0.3239841976106,0.174180166084741,8.01951768669974
2.05,-0.243728055098138,0.136692543053098,8.05146555395772
2.055,-0.2037519340421,0.147858292434828,8.17773763913343
2.06,-0.247366008819954,0.209470729275539,8.2768585948352
2.065,-0.265377362099898,0.230219408281182,8.27703947168459
2.07,-0.283388715379841,0.250968087286824,8.27722034853398
2.075,-0.329422932410894,0.307897782437216,8.20610040967756
2.08,-0.31867233366046,0.303004657943406,8.17598623635812
2.085,-0.292473121192093,0.228372400529215,8.43993530661965
2.09,-0.269966292508653,0.113762013814527,8.46672314873226
2.095,-0.263042678769082,0.105203403395628,8.43217715323412
2.1,-0.342992011724647,0.204825311021679,8.48277146705753
2.105,-0.397597619229817,0.185508101707561,8.52704514867417
2.11,-0.373784591594947,0.1300839811954,8.58894366504214
2.115,-0.360448944481055,0.124977615772323,8.62484000767315
2.12,-0.347113297367164,0.119871250349247,8.66073635030415
2.125,-0.241283240329638,0.0946252571641099,9.00411846820107
2.13,-0.415604565922651,0.21584588759296,9.1037499205113
2.135,-0.462280772508027,0.175892663223814,8.9726795610661
2.14,-0.340876723751662,0.0954649386787813,8.71671601101924
2.145,-0.317423376532543,0.0616829102828082,8.70386544224182
2.15,-0.361686449363053,0.161818189690745,8.64848997830475
2.155,-0.427137153005855,0.172014402330884,8.72503906146322
2.16,-0.386276562022872,0.197454817460298,8.774119843152
2.165,-0.303452911986404,0.188223631883866,8.86211421151076
2.17,-0.268921862911921,0.059753749331712,8.92752141032673
2.175,-0.267166604944853,0.072914558543846,9.09804337476617
2.18,-0.307493748726391,0.154833498763961,9.10536637968348
2.185,-0.318353689409048,0.166206209506557,9.11661762687355
2.19,-0.289342937704058,0.170598903218006,9.21228636831871
2.195,-0.311027738725794,0.15070220673776,9.21741209471739
2.2,-0.35505426250259,0.172651245945301,9.20584803843367
2.205,-0.369707911197645,0.184340479477882,9.19615147249961
2.21,-0.307195996085596,0.167888398129176,8.89682171159703
2.215,-0.293011399425917,0.187746035844144,8.91199632335803
2.22,-0.278826802766236,0.207603673559114,8.92717093511902
2.225,-0.2372042397065,0.266514087269113,8.65490173345504
2.23,-0.451199266734403,0.185170412482531,8.94546416051903
2.235,-0.44706564085689,0.0875626353942369,9.14285810616988
2.24,-0.398177218423198,0.0517347734616361,9.03019122718077
2.245,-0.359609727751274,0.130935219137536,9.00501734639394
2.25,-0.354766549951773,0.177631900774654,8.94527304145582
2.255,-0.353447511179178,0.116002063822897,9.13712400457094
2.26,-0.334407383801956,-0.00034598451523969,9.34599798817808
2.265,-0.372801311767793,-0.0412627231245016,9.32121925499064
2.27,-0.43289835661736,0.0632458451541959,9.23852473813787
2.275,-0.40894865963919,0.133009504723674,9.13087158985537
2.28,-0.332250013191185,0.0791393673186047,9.24433175688214
2.285,-0.242212061088202,0.0828947973464122,9.22647166308942
2.29,-0.199869600578426,0.137263136436972,9.14966901062661
2.295,-0.26328213645999,0.193602033341955,9.16572214970091
2.3,-0.334878375909062,0.187959331778845,9.2040594234927
2.305,-0.256010236997404,0.138869986012853,9.10966639575918
2.31,-0.22333444628297,0.132250560306024,9.00202641726558
2.315,-0.304171851187173,0.21886249845241,8.95785998295923
2.32,-0.379738144334983,0.282341462122898,8.95045588136978
2.325,-0.364498649166272,0.263725984134324,8.97348391262514
2.33,-0.249411610990034,0.185233245241933,9.1144971765451
2.335,-0.228621942108823,0.174013192835488,9.18863009605917
2.34,-0.232499642042729,0.163228815770055,9.22539192024952
2.345,-0.27791394962627,0.198811197797287,9.29168584900545
2.35,-0.230325658666772,0.168389261268973,9.16278239750756
2.355,-0.195576429435484,0.228521696802135,9.21571914143258
2.36,-0.207182670686126,0.218303784420592,9.32113568712622
2.365,-0.212252503893416,0.217824473264802,9.32791651864576
2.37,-0.217322337100706,0.217345162109012,9.33469735016529
2.375,-0.304393866029676,0.131937708622758,9.332567447674
2.38,-0.215051957074938,0.224829622588731,9.24993343301378
2.385,-0.206545640532151,0.195795106142684,9.2598809953602
2.39,-0.222994919931565,0.0931650090271794,9.41843411905072
2.395,-0.258797110223281,0.0256469162626817,9.41736494046182
2.4,-0.273842969970251,0.133901022178847,9.45712212386615
2.405,-0.279535400750471,0.16632793127391,9.4732462962513
2.41,-0.261433362102629,0.0740668791390588,9.49603877688628
2.415,-0.231076389928433,-0.00518701210279767,9.55455646112806
2.42,-0.211712113585291,0.031941237825696,9.54903328412345
2.425,-0.260822115127454,0.0884028676784518,9.47038775292291
2.43,-0.303798077678837,0.12883310038483,9.49523364692334
2.435,-0.272195227050139,0.149253011823244,9.47484195772221
2.44,-0.188624767347889,0.0896771540462876,9.43986122934504
2.445,-0.197562235482969,0.0790974299261756,9.48246592884091
2.45,-0.31392521685742,0.113402049217958,9.52588661468947
2.455,-0.339513314783753,0.185690371333799,9.52211616771609
2.46,-0.262868753109135,0.147744963409725,9.61426938546062
2.465,-0.244119083961228,0.0664480655047297,9.68329648559794
2.47,-0.287464854279433,0.0793957845186445,9.66085684528083
2.475,-0.293974499670039,0.192809243903659,9.47039172386028
2.48,-0.243181273474527,0.171126585411724,9.42417971237581
2.485,-0.23992244110656,0.126252157531484,9.45126529264427
2.49,-0.238700443530849,0.109425136105,9.46142184863965
2.495,-0.281733361341084,0.0390006206405883,9.53907103867304
2.5,-0.313925182296384,0.130527172824155,9.60406098703066
2.505,-0.318137000032761,0.063436492648069,9.66065621364676
2.51,-0.279065215386745,0.0419866025228292,9.66201650469581
2.515,-0.151560438279899,0.0716747342463175,9.54773980835732
2.52,-0.191935867504187,0.139993245507776,9.44281113310871
2.525,-0.238646406587277,0.18396967679497,9.41128623284885
2.53,-0.265599822537201,0.209345428557726,9.3930953969869
2.535,-0.314850363783494,0.163867526789837,9.5236457570277
2.54,-0.272091310449275,0.152136954550308,9.64676326726219
2.545,-0.317773800572173,0.228646532342055,9.59706095900019
2.55,-0.342007972686639,0.272863501275999,9.53932749893548
2.555,-0.319674592811964,0.243717480803122,9.50657635757976
2.56,-0.238769260366248,0.251568210087782,9.69369971207969
2.565,-0.267078237774413,0.252825853588698,9.7585171789303
2.57,-0.454939244488969,0.234763780693605,9.72655344397548
2.575,-0.463443428838951,0.235454338554873,9.82074091940911
2.58,-0.377525756942297,0.210266403862975,9.81405710928173
2.585,-0.271722108180417,0.197673568923239,9.72840209111273
2.59,-0.240139642717421,0.182864472914618,9.60174996448722
2.595,-0.29252972179749,0.181053847102727,9.61027340613516
2.6,-0.406312189500725,0.204000463014114,9.71581477030612
2.605,-0.39760675148768,0.144013063234561,9.8430120825854
2.61,-0.375134183894172,0.0828870043439748,9.86690965484401
2.615,-0.366095001033013,0.0588308311157004,9.83247686422481
2.62,-0.31431156339717,0.126931734354383,9.72785623996795
2.625,-0.252142236245715,0.193034904352997,9.66518522843071
2.63,-0.251538050035846,0.189391456797253,9.71237338634938
2.635,-0.351783781918868,0.142103525247242,9.90611711457013
2.64,-0.43919693769989,0.11241786034253,9.9639906598034
2.645,-0.567342447064127,0.11863363502964,9.95588875908307
2.65,-0.485419486325645,0.124680163114701,9.82040016848007
2.655,-0.43560652823016,0.117278142893181,9.76506674642695
2.66,-0.200150729909385,0.143452069543459,9.53585229398515
2.665,-0.171058523674458,0.177084444395235,9.5055180143214
2.67,-0.261301183724532,0.18336585752317,9.58456514098989
2.675,-0.314352327242306,0.178556222779728,9.68779293687456
2.68,-0.273553052866188,0.149000283886364,9.71492862324048
2.685,-0.217673364788106,0.070099791890249,9.75513693936927
2.69,-0.300445317407977,0.178012869344372,9.67383888443455
2.695,-0.33836962472546,0.335094301881893,9.49948054794653
2.7,-0.267847261465538,0.230259959598321,9.55225451430455
2.705,-0.200102798566864,0.0347900443378817,9.71485277371917
2.71,-0.286217260971339,0.119051389450801,9.68084888849501
2.715,-0.348549201930804,0.248203130039064,9.62838840942613
2.72,-0.320035490591875,0.239033037120817,9.69699151519928
2.725,-0.300199264388068,0.203245180177928,9.7206639574267
2.73,-0.280363038184261,0.16745732323504,9.74433639965413
2.735,-0.324297565058503,0.12316641099142,9.76034740045512
2.74,-0.376247136377173,0.110634244918754,9.77992387138383
2.745,-0.297989676942676,0.0154110434261425,9.77835312446062
2.75,-0.216230622833769,-0.00380902729978977,9.75635242616612
2.755,-0.285989038646207,0.0779178155489038,9.73869150224524
2.76,-0.340077884313839,0.0873723248832219,9.61773339006068
2.765,-0.322216900666232,0.0542123020930232,9.60301494187467
2.77,-0.286388966010765,0.0627217114590073,9.62893858048182
2.775,-0.2942178640983,0.094222256788341,9.56282637965796
2.78,-0.28332950058462,0.0596625025347456,9.75259000896138
2.785,-0.276029342950679,0.0363845113417098,9.91293790152409
2.79,-0.296348958925053,0.0361634478470349,9.93071774663142
2.795,-0.346666306552176,0.0377908308288342,9.84308855607727
2.8,-0.390870226173948,0.128385508932047,9.57982800482696
2.805,-0.368236133964034,0.193882462155501,9.46817701498876
2.81,-0.248467185712234,-0.0178373794846633,9.57249174789445
2.815,-0.211327745077122,-0.134989412273086,9.64712448527793
2.82,-0.310153028312649,0.0540815209110203,9.63080445779226
2.825,-0.387430555356369,0.197600456961667,9.64569522703068
2.83,-0.293412667897694,0.0584204288184413,9.67815409195531
2.835,-0.187970867603856,-0.0428290573484228,9.72467240987671
2.84,-0.18439147223496,0.00588654643727285,9.7441630832812
2.845,-0.247604903000829,0.153945718949924,9.81935702685058
2.85,-0.31335109187598,0.205264887267232,9.77531573988992
2.855,-0.302355019719053,0.118244006176341,9.79783636015555
2.86,-0.25357694881555,0.000490879804159369,9.73974224467795
2.865,-0.233134765731386,-0.0119120659057983,9.77643969006684
2.87,-0.218787289114084,-0.0206171524822488,9.80219602624014
2.875,-0.403448834230598,0.216991792210651,9.68110895008643
2.88,-0.37308310700983,0.178868847038372,9.68912308869303
2.885,-0.258796290477196,0.0410484362674912,9.69565915873898
2.89,-0.228429781616984,0.0390852101560359,9.69852532975394
2.895,-0.259178356613797,0.195707107604937,9.65250677218952
2.9,-0.265862420894116,0.206154800051469,9.64074485094058
2.905,-0.272546485174435,0.216602492498001,9.62898292969164
2.91,-0.234434981574559,0.15648372797645,9.70549319891764
2.915,-0.157111847324017,0.183485479374389,9.6904842400996
2.92,-0.15812605166667,0.186794804181051,9.70783172374029
2.925,-0.307584096010332,0.136408401280445,9.84838205901908
2.93,-0.35224474446264,0.145050288214776,9.7884429642138
2.935,-0.353030972660473,0.15772256836701,9.77526846551572
2.94,-0.218523203901635,0.139891326902763,9.92847577938112
2.945,-0.217058584379605,0.132315792693048,10.0188565598599
2.95,-0.377123800057022,0.205234454711334,9.81044159629629
2.955,-0.392614127450334,0.266980477527985,9.76117462547727
2.96,-0.391251570833251,0.285096090848778,9.75372428763107
2.965,-0.217669756896715,0.0473692784869116,9.92795043921049
2.97,-0.234348644447722,0.0338394694157374,9.89568707486745
2.975,-0.416039601501867,0.373468489333185,9.71304632128667
2.98,-0.313614342769375,0.2951858516884,9.65269236526905
2.985,-0.171086593339891,0.0915364726576165,9.7878025423953
2.99,-0.169781030491303,0.0900878852784245,9.7726449703362
2.995,-0.168475467642716,0.0886392978992326,9.75748739827711
3,-0.167169904794129,0.0871907105200407,9.74232982621801
3.005,-0.165864341945542,0.0857421231408488,9.72717225415892
3.01,-0.164558779096955,0.0842935357616568,9.71201468209982
3.015,-0.163253216248367,0.0828449483824649,9.69685711004073
3.02,-0.189858887139959,0.0986656283376651,9.88624626215774
3.025,-0.199471070858838,0.107892280402196,9.87236723534351
3.03,-0.209083254577717,0.117118932466728,9.85848820852928
3.035,-0.218695438296596,0.126345584531259,9.84460918171505
3.04,-0.228307622015475,0.13557223659579,9.83073015490082
3.045,-0.237919805734353,0.144798888660321,9.81685112808659
3.05,-0.247531989453233,0.154025540724852,9.80297210127236
3.055,-0.257144173172111,0.163252192789383,9.78909307445814
3.06,-0.223321941117131,0.19927965425689,9.7589204902759
3.065,-0.214148186351818,0.22991272461673,9.9083847828747
3.07,-0.219100808426408,0.235048172511422,9.91217535000647
3.075,-0.224053430500997,0.240183620406113,9.91596591713824
3.08,-0.229006052575587,0.245319068300805,9.91975648427001
3.085,-0.233958674650176,0.250454516195496,9.92354705140178
3.09,-0.238911296724766,0.255589964090187,9.92733761853355
3.095,-0.243863918799355,0.260725411984879,9.93112818566533
3.1,-0.283965783848184,0.302709940752043,9.72094966241647
3.105,-0.285970777978733,0.288106305411494,9.77625237023558
3.11,-0.288813547700336,0.2923433048554,9.82305324830329
3.115,-0.334539323104689,0.370665704908009,9.7189165347721
3.12,-0.295930677219376,0.346994226460073,9.8214681194528
3.125,-0.27546647008869,0.202230967203936,9.74677222205747
3.13,-0.353044663305271,0.249860510440744,9.70676611345868
3.135,-0.403367623381536,0.282416750722754,9.79903546352152
3.14,-0.374811433422274,0.243430990163259,9.84473616439028
3.145,-0.276985194425991,0.194932164970144,9.84825039839535
3.15,-0.318702241031516,0.290121223822903,9.91302502917309
3.155,-0.398717676814721,0.36504932363245,9.84870177057515
3.16,-0.401540423530475,0.374226772249888,9.83161945253298
3.165,-0.331987028914486,0.321142670056803,9.87589506364277
3.17,-0.274511037199013,0.174007307035576,9.88709990520112
3.175,-0.34393024355242,0.232323074958113,9.91903404834553
3.18,-0.377887015828925,0.267537175512291,9.95430148308376
3.185,-0.419636986483983,0.345744176052421,9.79433806002419
3.19,-0.338172869556732,0.268916791460588,9.74154975022317
3.195,-0.318489124601914,0.233198256755237,9.61261170514562
3.2,-0.400365507656839,0.204439428377839,9.53463954549502
3.205,-0.441249305872765,0.151514786633932,9.68987635244492
3.21,-0.467644981235259,0.175395480382899,10.0391805105456
3.215,-0.315843360336776,0.0438559275727331,10.2917674402991
3.22,-0.352861347706966,0.165819749960013,10.0503977402577
3.225,-0.598403444891523,0.475100336731861,9.90910491765979
3.23,-0.456893956685619,0.243895501322965,9.7282205165887
3.235,-0.113783792558272,-0.0284016445481806,9.45329145694472
3.24,-0.18270651500124,0.122475732118773,9.49050878994126
3.245,-0.400101681534693,0.348207186369877,9.60671517915929
3.25,-0.44512467997863,0.363167526764796,9.64660994659274
3.255,-0.348850529163098,0.0115815177134874,9.8276180543788
3.26,-0.281915993104485,-0.026534236135737,9.7891694137037
3.265,-0.308029471912859,0.106585478635434,9.69418141973238
3.27,-0.314820660799798,0.143570794290635,9.70519610576445
3.275,-0.321611849686737,0.180556109945837,9.71621079179652
3.28,-0.30858338917716,0.0714742118245653,9.60289958251213
3.285,-0.374469298127954,0.131539264640478,9.66571881551134
3.29,-0.433012474254629,0.344400803102768,9.5507975551691
3.295,-0.379621008209643,0.22922141755248,9.58951535339211
3.3,-0.347440267326982,0.153735327415884,9.65693653177195
3.305,-0.282604662096514,0.0831541852779406,9.74616025721201
3.31,-0.290459017252424,0.126780402173838,9.80574666474913
3.315,-0.293858694254386,0.130701343413688,9.80470910750897
3.32,-0.297258371256349,0.134622284653539,9.80367155026881
3.325,-0.300658048258312,0.13854322589339,9.80263399302866
3.33,-0.304057725260274,0.14246416713324,9.8015964357885
3.335,-0.307457402262236,0.146385108373091,9.80055887854834
3.34,-0.310857079264199,0.150306049612942,9.79952132130818
3.345,-0.314256756266162,0.154226990852793,9.79848376406802
3.35,-0.317656433268124,0.158147932092643,9.79744620682786
3.355,-0.321056110270087,0.162068873332494,9.7964086495877
3.36,-0.313714498185129,0.312884828566277,9.83328441911712
3.365,-0.328876942674432,0.329596812749334,9.82738500161899
3.37,-0.365846958963331,0.187204589268316,9.72266654895588
3.375,-0.339081487485688,0.148887044032436,9.74804183984351
3.38,-0.359846712712216,0.179069991081629,9.6992801079686
3.385,-0.382145858972143,0.210385321734527,9.63912713349648
3.39,-0.384647725056522,0.267463630793798,9.67141172421801
3.395,-0.348963130715504,0.27466529660534,9.66560562192018
3.4,-0.310915862780936,0.257719063275016,9.69658136841482
3.405,-0.305095667498033,0.232651013153087,9.71212909306049
3.41,-0.339796963514927,0.229238326969602,9.68438397657953
3.415,-0.384579907130515,0.263254430486376,9.71057917130725
3.42,-0.337659633862523,0.27961481577341,9.6817772800778
3.425,-0.217843050278093,0.238210720103733,9.715081835097
3.43,-0.21575367748252,0.190600172198394,9.83663603678417
3.435,-0.273415981881497,0.155956248317624,9.86229637068741
3.44,-0.308401859631719,0.137890184224717,9.81750039149276
3.445,-0.325016592985926,0.129310641364406,9.79622685778372
3.45,-0.378503272874321,0.22474653689936,9.77692101466298
3.455,-0.274094709176865,0.198996711914564,9.74640684009285
3.46,-0.253928274076748,0.228796377319084,9.67255611020201
3.465,-0.284717287068645,0.244063641221553,9.70288886755304
3.47,-0.317653555745805,0.268120072866389,9.68395319697417
3.475,-0.318575295720567,0.279045719069578,9.7559273975565
3.48,-0.277891897107048,0.231637304343023,9.8115275056632
3.485,-0.256107152466199,0.172037499492005,9.81923873862026
3.49,-0.314534489120101,0.215609503280624,9.7862024380831
3.495,-0.350333151094329,0.306443640624738,9.69926398548225
3.5,-0.345052347128235,0.325981094585363,9.65693621626816
3.505,-0.342964800598057,0.322900946353509,9.66183124418626
3.51,-0.340877254067878,0.319820798121656,9.66672627210437
3.515,-0.285949902038393,0.202554990749205,9.69097871307718
3.52,-0.314720334463624,0.32284517792581,9.68853518544119
3.525,-0.347971566152179,0.336026684123371,9.71680788422375
3.53,-0.382358671484596,0.332155602673016,9.7182646008778
3.535,-0.360847160232864,0.192797648976205,9.72087324819088
3.54,-0.334520442951817,0.210371638413686,9.75337114454656
3.545,-0.322831594965452,0.331945852673916,9.70215683780483
3.55,-0.335300184126199,0.306751075827196,9.71840545553227
3.555,-0.391930308167113,0.285339850681539,9.75499741401908
3.56,-0.393255396174863,0.348451808549547,9.76180287802115
3.565,-0.282507979650833,0.25634868361702,9.82079969470839
3.57,-0.285267127657219,0.212663882183893,9.81959139600103
3.575,-0.369289990172437,0.335157466089469,9.72019575856937
3.58,-0.385649385513731,0.445996581246427,9.6956735998051
3.585,-0.242937593659549,0.268668333487056,9.74255424012615
3.59,-0.130142988484981,0.0582879957291158,9.83690526006641
3.595,-0.350391807319183,0.262867128148012,9.84229185259954
3.6,-0.439011776047653,0.385108816344638,9.79106873525255
3.605,-0.36906802912116,0.327733337900936,9.7470207982348
3.61,-0.242783246681171,0.187620858484889,9.83184624386264
3.615,-0.180801711747115,0.15355151838474,9.81132168027669
3.62,-0.205668982392418,0.222309966582711,9.74255066522592
3.625,-0.468580053274941,0.458354795186124,9.61472022827173
3.63,-0.415079623867511,0.30254205403965,9.67418917970854
3.635,-0.214542684977021,0.15053998874277,9.74665296734247
3.64,-0.184688819322228,0.167422588422569,9.81840441870743
3.645,-0.355278136185868,0.343628959431299,9.64485801285744
3.65,-0.430576293117403,0.474161259515278,9.52277236742225
3.655,-0.304586542731968,0.287139653268999,9.67201042150758
3.66,-0.20997387757528,0.113795920007756,9.90154681588874
3.665,-0.271542833145275,0.264375747822747,9.73461539601171
3.67,-0.377010729799087,0.389392292398434,9.73597762669983
3.675,-0.317653753534452,0.225275526539245,9.70616289458452
3.68,-0.17291214716434,0.0828635367580803,9.77856176358178
3.685,-0.252335501363161,0.195309439096424,9.80375648675261
3.69,-0.319014878129802,0.239745887564153,9.79301922489902
3.695,-0.435400441688522,0.273197846153252,9.81798550023407
3.7,-0.387834320712362,0.229421324177737,9.90650577934354
3.705,-0.358407475868762,0.214391268979917,9.90229590837904
3.71,-0.198716789938191,0.244807496932708,9.69025713516301
3.715,-0.354744755072896,0.345892540894774,9.64499950760611
3.72,-0.394521756530246,0.328036014781202,9.78217485642691
3.725,-0.275317666002197,0.20892771836082,9.88830516146867
3.73,-0.213005675949747,0.0419254299907355,9.90558104784193
3.735,-0.227183990887067,0.0466260668461135,9.87111081649074
3.74,-0.40170207892962,0.332065198807375,9.69716069463198
3.745,-0.332646589314303,0.239048988064551,9.72259513603594
3.75,-0.252669140030168,0.130787108243274,9.81526293841114
3.755,-0.252785833739916,0.16675419440009,9.71253362723464
3.76,-0.296368522981396,0.267125285933061,9.6838541346117
3.765,-0.306527516874,0.290521485745968,9.67716903106554
3.77,-0.330988846798659,0.285489364504662,9.72164105351768
3.775,-0.229301612685212,0.145839422858742,9.81463029269294
3.78,-0.237857759598091,0.176237314953492,9.79827891057751
3.785,-0.287751590387487,0.289238914109312,9.69720486844059
3.79,-0.266145621203276,0.244706847361093,9.75918478139806
3.795,-0.172048742751725,0.164499997008489,9.75951988571495
3.8,-0.149181420883446,0.15987116834218,9.765328534786
3.805,-0.151818961978877,0.167417565642741,9.76867512302656
3.81,-0.307472099290622,0.248510919905706,9.81722502045271
3.815,-0.198951090690847,0.177013100832547,9.79690693396769
3.82,-0.103200927087497,0.148825756810307,9.85600541200703
3.825,-0.0658314436743512,0.135871461896533,9.89334893234465
3.83,-0.0789550096335181,0.147577502326328,9.82313312465413
3.835,-0.0716251025320661,0.133066096685396,9.84761095214589
3.84,-0.0598838278487423,0.12609703908484,9.86005623228614
3.845,-0.0481425531654174,0.119127981484283,9.8725015124264
3.85,-0.0364012784820936,0.112158923883726,9.88494679256665
3.855,-0.0246600037987698,0.105189866283169,9.8973920727069
3.86,-0.012918729115446,0.0982208086826129,9.90983735284716
3.865,-0.00117745443212109,0.0912517510820557,9.92228263298741
3.87,-0.175584445708304,0.260345208166906,9.61877329202341
3.875,-0.191419490420916,-0.107979619537298,9.58699996280901
3.88,-0.0459934390659304,-0.406805678607412,9.32776252498497
3.885,0.124621273058655,-0.211453258192541,8.6416401073693
3.89,0.595014338344839,-0.521879806365196,8.31612173287122
3.895,0.739614295288001,-0.700768232838137,8.17569941541218
3.9,0.288532138210232,-0.317079853346393,7.60162043476215
3.905,-0.47013383210719,0.707703163667812,7.60356847188812
3.91,-0.637479448602996,0.670523287470602,8.19473246453584
3.915,-0.345286308384452,-0.139514335325738,9.62512385745053
3.92,-0.00592572986097847,-0.395090275499034,10.0926741518231
3.925,0.313349993538179,-0.215953320369072,10.3937057415059
3.93,0.223134404771407,0.217226002759183,10.4666329201638
3.935,0.111112115327423,0.168812322529127,10.6399538167275
3.94,0.218269479268309,-0.456227049324496,11.0783327329942
3.945,0.386299485667298,-0.655317835416644,10.6955807028333
3.95,0.421203729186411,-0.463334046710523,10.0947983322674
3.955,0.223852059003088,0.0802645653784136,9.98887297599016
3.96,0.176077384517171,0.251727858341476,10.0115065196202
3.965,0.375023209886742,-0.256221414738238,10.1101982962046
3.97,0.442017340208035,-0.486423035590586,10.4243427523256
3.975,0.340394571074286,-0.510007240004443,10.63475308698
3.98,0.245317136802221,-0.441225523385493,10.4935151034388
3.985,0.251291529005215,-0.479885625548758,10.2856214681107
3.99,0.291499817695741,-0.528869921811916,10.042166363457
3.995,0.378035131642709,-0.500076224093527,9.72271823541611
4,0.398929413651747,-0.456463823319809,9.63721971991864
4.005,0.420167978808402,-0.497908935714379,9.65387602961767
4.01,0.400784146104918,-0.514129710328344,9.64150825161671
4.015,0.284923955565158,-0.564320388882225,9.63625281153711
4.02,0.247659908170292,-0.645762393160291,9.50078512461718
4.025,0.288954877400993,-0.629911920077951,9.35294444363084
4.03,0.335005765289957,-0.44890976061527,9.44641026398426
4.035,0.36626124459332,-0.334056872383328,9.57359413097019
4.04,0.349983871169985,-0.380374758611241,9.55691960018916
4.045,0.342992450473809,-0.441841187312464,9.30822109957378
4.05,0.365382337207359,-0.357863969934303,9.14728808883075
4.055,0.40543899809633,-0.337137351178699,9.30493876410067
4.06,0.408175419297466,-0.31302024342618,9.14610904497311
4.065,0.388265365038433,-0.308136341743995,8.99929331554443
4.07,0.386521370056703,-0.389324121627285,9.42552156692229
4.075,0.413543633551936,-0.4723387522346,9.46357491937027
4.08,0.425779856686517,-0.509929442730427,9.48080624093053
4.085,0.217978355355246,-0.41124945387522,9.68929240368426
4.09,0.151464256207408,-0.331958751082807,9.86811018114706
4.095,0.20468010038159,-0.356828377748139,9.9633778686709
4.1,0.102488016882917,-0.267441064231596,11.2580008103417
4.105,-0.365356543808809,-0.15938668145064,13.4456908825442
4.11,-1.70210098993483,-0.105350037815446,16.5196720641183
4.115,-1.9127748320666,-0.0261852380846031,16.3883182709817
4.12,-0.926704146964592,0.676679221620819,14.6164092773238
4.125,-0.93554240050927,1.80540968611587,12.30671127462
4.13,-1.70928051832383,3.00859221996459,9.56558459613549
4.135,-1.96628272639201,3.21069393551711,8.86657642469247
4.14,-2.05703610987075,3.28206069392403,8.61974058186224
4.145,-2.1477894933495,3.35342745233097,8.37290473903197
4.15,-2.05202789336563,2.7644998150797,8.32736563097992
4.155,-1.45605406312932,2.72657163454419,7.93734586514927
4.16,-0.841898126299889,1.61537582704654,8.84989526256103
4.165,-0.425401767216463,0.610542269586513,9.43995229113903
4.17,-0.419352850043424,0.20348833008298,8.35460036027722
4.175,-0.737981309115742,0.855453527777361,7.38744388711923
4.18,-1.26853119588111,1.27591428610293,7.3306796023351
4.185,-0.747553843991603,0.296578448270247,7.09700330729617
4.19,-0.0151795989123436,-0.404255288058538,7.22968989285814
4.195,-0.448155387357338,-0.22214341842073,8.46784464197587
4.2,-0.998699498712325,0.632972407066549,8.40872432151364
4.205,-1.40222491701239,1.61501510355311,7.36066486253137
4.21,-1.56551718930141,1.34352323981427,7.21918896958574
4.215,-1.34454261134884,0.93871744948447,7.17427209281015
4.22,-1.19097132172966,0.344905906550144,8.70559738038993
4.225,-1.2600133592837,0.617850593992836,9.13332411085315
4.23,-1.20086982310225,0.758247474711272,9.11142129466757
4.235,-1.03449957138775,0.440766027778534,9.62276288113389
4.24,-1.00493100017184,0.147460277918612,9.90496195810368
4.245,-1.16150759827554,0.164431699179756,9.83649496589956
4.25,-1.42530441413363,0.429573500669863,9.80187171476718
4.255,-1.23882981596862,0.640702621156283,9.84663676978672
4.26,-0.927461038957419,0.421819420387451,9.95698449650532
4.265,-0.776307903886846,0.129004150663503,10.2395916328401
4.27,-0.86330215836769,0.0209157018810006,10.930139830027
4.275,-0.95728898485502,0.207226384133115,11.0746108182271
4.28,-0.995188441792066,0.493095056240732,10.6881863766941
4.285,-0.874440759276909,0.52355626449896,10.55940973429
4.29,-0.573864804160097,0.482192848952569,10.4494721566262
4.295,-0.514251819351487,0.545164337514695,10.4370836496594
4.3,-0.643948027190078,0.654666472289481,10.4719048124029
4.305,-0.707646553114137,0.604100050636246,10.4553886377299
4.31,-0.586066676456279,0.610337327916509,9.97159483587145
4.315,-0.475195611985787,0.826515632635225,9.53456794842371
4.32,-0.551624122314823,0.929050752909142,9.22618103014304
4.325,-0.755066623201982,0.595154622488551,9.78395405507594
4.33,-0.840005742601991,0.31510283330103,10.594780423627
4.335,-0.711054243790352,0.552061975745064,10.2835662668321
4.34,-0.478875126370911,0.914057813969904,9.12928175892011
4.345,-0.468644645958041,0.889538875203831,8.70529437423941
4.35,-0.48830755734733,0.938036905053542,8.72260807719893
4.355,-0.492675047408085,0.947829744936792,8.76035889075304
4.36,-0.49426866425502,0.926755445526763,8.77339282268218
4.365,-0.495862281101956,0.905681146116734,8.78642675461131
4.37,-0.497455897948891,0.884606846706705,8.79946068654045
4.375,-0.499049514795827,0.863532547296676,8.81249461846958
4.38,-0.455173383974235,0.389131146917971,9.0108407514566
4.385,-0.543961748023847,0.356030484940856,9.31349330603328
4.39,-0.762235332414217,0.375305121945784,9.47889519383213
4.395,-0.852706229633558,0.369150704398283,9.53874413057359
4.4,-0.70330720405239,0.130474536732806,9.67153789034361
4.405,-0.636171299838842,-0.179834664754621,9.67654819927053
4.41,-0.648728917700022,-0.110987811339869,9.57891672375774
4.415,-0.663497379301889,0.0897436515363004,9.57333371086922
4.42,-1.07083921797719,0.0845078749811887,11.0604663656178
4.425,-1.89015549242699,-0.541378370796875,13.4129606970472
4.43,-2.25053084306352,-0.7845695255085,14.4589136578067
4.435,-2.89257272113963,-0.890036009643196,17.5002529587561
4.44,-2.58104010906468,-1.57668392599339,16.6028907977005
4.445,-1.79857423282732,-0.693203328487825,13.4972775672279
4.45,-1.46564758003287,0.371187986038603,10.5200611621168
4.455,-1.86013126237453,1.20482879251721,9.26662135193417
4.46,-1.56907378446403,1.76927186501523,7.77657465946284
4.465,-0.056615628377858,1.00897308309087,6.93709247261505
4.47,1.69008042041621,-0.496475218526305,6.54459578169799
4.475,1.55969186365904,-0.591190169873025,6.68240080444405
4.48,0.361190762914395,-0.0683226347342006,6.68038632028142
4.485,0.0131596150102114,-0.0449767914454009,6.63653520550023
4.49,0.510608703888969,-0.601474852982802,7.20019305348604
4.495,1.22758892201028,-1.11784858276242,6.79055777873402
4.5,1.44824701292179,-0.863641057195112,6.17975028287265
4.505,0.737397024045152,-0.157308670053802,7.30351310536992
4.51,-0.0774614156356856,0.29676892613797,8.46807277990081
4.515,-0.0561476159155506,0.031878173653153,8.71837178649578
4.52,0.370570710140172,-0.667677830692049,9.91947414619386
4.525,0.479019403937757,-0.414628567386656,10.1069535449704
4.53,0.412210332105548,-0.260707293380428,9.97037948466372
4.535,0.379797461938646,-0.186031352921056,9.90411966150671
4.54,0.223571179147089,-0.356056864167351,10.6442502521022
4.545,0.193599324166054,-0.489954013430387,10.3703399068687
4.55,0.162931910269022,-0.144469846493098,9.70203765268835
4.555,0.175935823916491,0.144043504751104,9.50881880479046
4.56,0.238129686461093,0.181719586346853,9.58475625332017
4.565,0.342980485006085,0.0148125199620877,9.68985013324637
4.57,0.382750667973826,-0.0724177257444538,9.72322658208863
4.575,0.360562240477218,-0.179845862023792,10.0658383676123
4.58,0.350545467395429,-0.208790786879347,10.109394407246
4.585,0.343466876256329,-0.227667264796604,10.1037591304645
4.59,0.33638828511723,-0.246543742713861,10.098123853683
4.595,0.297524836469857,-0.188103617402907,9.79273792143694
4.6,0.340017103327773,-0.365166729294129,9.91990705225402
4.605,0.40376713574384,-0.560732940344789,10.0586473355782
4.61,0.406666674468446,-0.611168258178425,10.191630779392
4.615,0.390028789062735,-0.597588661293944,10.1525323154201
4.62,0.385612442679182,-0.592373536436227,10.1379266746899
4.625,0.381196096295629,-0.58715841157851,10.1233210339598
4.63,0.0720206739864311,-0.718201890071154,10.1439837888296
4.635,0.173867418595999,-0.714489092386064,10.0170026492944
4.64,0.222397628051503,-0.683151319931799,10.1407444698786
4.645,0.266713168834818,-0.73694842968345,10.2293808066414
4.65,0.236396213813284,-0.683917497811878,10.0568310807212
4.655,0.136524515279168,-0.441487787910107,9.2995010863279
4.66,0.321632005881495,-0.692106335388446,9.23350059129276
4.665,0.486081102760795,-0.728305152482497,8.99415662105121
4.67,0.364310296741196,-0.52613669622487,8.81787846379247
4.675,0.194092024207409,-0.542254039755124,8.98845739246882
4.68,0.199679460846105,-0.620121614573534,9.17208977454671
4.685,0.264738064132459,-0.680669461540067,9.31271969140876
4.69,0.407190913821956,-0.685351364965712,9.41637738800164
4.695,0.298648657094274,-0.55108939305597,9.49743564178654
4.7,0.373381259210355,-0.425736353244707,10.4143372528694
4.705,0.0830650459607984,-0.159867084709361,12.7028971673283
4.71,-0.303656084409467,-0.224815478098451,13.6435306958206
4.715,-1.37835536544811,-0.0279032257579464,15.2306218370377
4.72,-1.39807875568732,1.0059595647467,14.2736148133001
4.725,-1.44634287343941,1.62540746216159,12.9865356423769
4.73,-1.4877651671922,2.21434576799024,11.3298854221847
4.735,-1.67480006991846,2.33278110995487,10.1079765423194
4.74,-1.71097916245564,1.52647482869586,10.2837528101813
4.745,-1.95605637621668,1.54490595127939,10.0288192263587
4.75,-2.34481342781469,2.06973358651756,10.1541852986748
4.755,-2.45315419831978,2.21599519167776,10.1891229462727
4.76,-2.56149496882487,2.36225679683796,10.2240605938706
4.765,-0.321539360851174,1.0831924211936,8.33332713675686
4.77,-0.368120783802489,0.540173811327954,8.82765295675717
4.775,-0.150752079739322,-1.13355763343677,7.55134355559808
4.78,-0.113771368246007,-0.820039357434216,7.39128686506784
4.785,-0.0767906567526915,-0.506521081431662,7.23123017453761
4.79,-0.735693820386055,0.527584046166651,6.43400967150959
4.795,-0.696987758925817,0.637855890534532,7.16504263606165
4.8,-1.24545563888948,0.541039423721094,8.8479791203245
4.805,-1.20533831220899,0.411989402502455,8.9159671608844
4.81,-1.11817177325808,0.367344842109759,8.90981355496224
4.815,-0.823684906826142,0.506204871347294,9.09129859871043
4.82,-0.987219540248027,0.894464856567003,9.23719676887951
4.825,-1.10681305783451,1.04584859851755,8.968756703313
4.83,-1.08977383198655,0.968897038865665,8.95252695957662
4.835,-1.07273460613859,0.891945479213785,8.93629721584025
4.84,-0.852984573640493,0.280141938352195,9.96102867960827
4.845,-1.1721368262881,0.523929879296575,9.84462155720985
4.85,-1.16912065701405,0.529172553271607,9.84000672983623
4.855,-1.16610448774001,0.534415227246638,9.83539190246262
4.86,-0.777193129482805,0.0733650833929995,10.5437308741573
4.865,-0.956409468867343,0.262330736265222,10.517955992609
4.87,-1.05740432821608,0.441484255037524,10.396232843314
4.875,-0.867710898730592,0.409321433473813,10.4987797855316
4.88,-0.782088719801789,0.156924206674772,10.7292735098228
4.885,-0.808229851153599,0.251216035328196,10.7070438038165
4.89,-0.690218096301769,0.444484162605442,10.6176352995501
4.895,-0.540897617796837,0.488426085064897,10.4870993736665
4.9,-0.477964067819241,0.482774394421079,10.3674704039918
4.905,-0.448130627457725,0.480095229240915,10.3107606882111
4.91,-0.618656836354602,0.751560445559941,9.55098780987475
4.915,-0.59527669676144,0.820550153497467,9.22874677940974
4.92,-0.577064407415105,0.708261288057985,9.4006500392533
4.925,-0.735331255099816,0.632417615495099,9.65199739103513
4.93,-0.744125259524761,0.602384802648686,9.76100721403939
4.935,-0.604766929611218,0.524394749422109,9.81274841204724
4.94,-0.381376053014609,0.605332171907666,9.31656787409639
4.945,-0.25790996665564,0.79527771453565,8.56793170237406
4.95,-0.431326072600329,1.08466463248533,8.4277227379505
4.955,-0.520157292276415,1.13809274748033,8.74005680159095
4.96,-0.401901939189064,0.487407428211379,9.30141679127353
4.965,-0.453662614682765,0.0249219627638326,9.77444766363895
4.97,-0.619536516391093,0.2737870017803,9.66678880886407
4.975,-0.72161603280043,0.429292356171335,9.5020241937272
4.98,-0.597162138167015,0.420416804533023,9.48593350103462
4.985,-0.591163186914764,0.235169938106736,9.67216949494407
4.99,-0.657988589721061,0.128747707123221,9.83866511467593
4.995,-0.731173579620901,0.0238452057947896,10.0741062505167
5,-0.726531702946029,0.0185911123863478,10.1141376326191
5.005,-0.72290167105898,0.014616997862534,10.147392470972
5.01,-0.64965876488915,-0.326630436988134,10.049192239932
5.015,-0.762050126893602,0.122542004328905,9.96783853047761
5.02,-0.747118423447739,0.328778161755334,10.5270832517522
5.025,-0.738340650509802,0.374978356897683,10.7005979745455
5.03,-0.729562877571864,0.421178552040031,10.8741126973388
5.035,-1.87808194365435,-0.135406938482588,15.3788586598351
5.04,-2.04969428294994,-0.145734777089937,14.748544726031
5.045,-1.69368291439042,0.22212686545153,12.6915648284666
5.05,-1.15008164703219,0.819302848284484,10.2341240451
5.055,-0.963828294636162,0.79276963455172,9.02220666452378
5.06,-0.652996291043573,0.431147937136642,8.31267757761152
5.065,0.347276239146641,0.778641672114541,5.70586784213403
5.07,0.768281452424714,1.60441865337597,5.0024856879852
5.075,0.786843363956876,0.681334521463817,6.48851578762984
5.08,1.22313121637623,-0.532979624559156,6.42231223250946
5.085,1.14100860251949,-0.979850135378531,6.61243094801575
5.09,0.750833985989898,-0.474509061021066,7.05385468260844
5.095,0.55047713263717,0.238013637358471,6.49637117539102
5.1,0.602286914690283,0.25264952421169,6.36344863795238
5.105,0.636804910142567,0.217408996504125,6.39035207005641
5.11,0.671322905594851,0.18216846879656,6.41725550216044
5.115,0.705840901047135,0.146927941088995,6.44415893426447
5.12,0.301074362226272,0.0287793185168757,10.1588970680539
5.125,0.3220584733033,0.0255550244828924,10.3466791517124
5.13,0.407643168226953,0.206896416873001,10.341236705032
5.135,0.402757680482616,0.130795621560657,10.4599926688631
5.14,0.377243028365512,-0.237250876462694,10.7916060545686
5.145,0.467852148953383,-0.261361231662385,10.4372655448703
5.15,0.468754897830018,0.0122045793458149,10.0132723839076
5.155,0.448125870132155,0.088785055125647,9.91669058845513
5.16,0.443956291875878,0.107263107861345,9.90217532182104
5.165,0.4397867136196,0.125741160597044,9.88766005518695
5.17,0.435617135363322,0.144219213332742,9.87314478855286
5.175,0.431447557107045,0.162697266068441,9.85862952191877
5.18,0.427277978850767,0.181175318804139,9.84411425528468
5.185,0.406378724068855,-0.144239739578543,9.86221845436419
5.19,0.510367697348488,-0.247358635070879,9.83938651734088
5.195,0.609552919466761,-0.339436627829401,9.85871186586329
5.2,0.651009675547108,-0.229154385866076,9.79748740552008
5.205,0.672136432548699,-0.192952435667885,9.73487827640907
5.21,0.679886961620952,-0.191801446997513,9.71751017038085
5.215,0.667960231593554,-0.527975095136778,10.0846836916584
5.22,0.613410349260658,-0.585991515636044,10.1773972995148
5.225,0.600281077127854,-0.580526207000163,10.163735734721
5.23,0.587151804995052,-0.575060898364284,10.1500741699272
5.235,0.57402253286225,-0.569595589728404,10.1364126051335
5.24,0.998434433403443,-0.432770983875398,9.90910837131515
5.245,1.0392003853693,-0.527197629338341,10.1475420735852
5.25,0.717339139660591,-0.316057114656785,9.72611541418716
5.255,0.527865899069929,-0.0362459872813641,9.15982706460824
5.26,0.737277176202397,-0.200209346328521,9.19807027439929
5.265,1.18072887380314,-0.314421336174519,9.04421619773087
5.27,1.02276845520419,-0.147975060592469,9.01590330018075
5.275,0.709185157488703,-0.140966179341612,9.41597482490588
5.28,0.495008899546062,-0.133710588296638,9.67371280980972
5.285,0.50318623880039,-0.270020791866072,9.75421250563524
5.29,0.782868268646786,-0.365736316583742,9.66262154738111
5.295,0.932775269699619,-0.274303381470232,9.54312093896991
5.3,0.765024134284541,-0.134765075434788,9.50178971277059
5.305,0.67757839477338,-0.07681091340768,9.49094576687814
5.31,0.342805152835029,-0.109063883628919,13.9152970314998
5.315,-0.722970778087006,-0.059155909299453,15.1256961841252
5.32,-0.999348113035766,0.608754151134386,14.8331860756595
5.325,-0.988701966393463,1.11630658881901,14.1588688208388
5.33,-0.917063888678439,1.41172472899899,12.9036810389834
5.335,-0.924380584853252,1.6293692800869,12.5012016092672
5.34,-1.36170921503598,2.07837920865613,10.6699850389286
5.345,-1.67488208920359,1.29199670426628,10.5258513436097
5.35,-1.86354972221202,1.80238904406608,9.80835325720827
5.355,-1.92889775578121,1.97917154365469,9.55983639033317
5.36,-0.145063832267819,0.279261286981454,10.0278526150988
5.365,1.36905694704947,0.14659474950398,7.88538118638549
5.37,0.745107849228116,0.904822734062187,5.05314513048394
5.375,-0.356152402188467,0.450724422672521,6.44035477845565
5.38,-0.312186855635959,0.815169739993481,7.10388994509443
5.385,0.391330228166939,0.00454239608208479,6.93372166807097
5.39,0.194327859044748,-0.978970746304508,6.69976023822651
5.395,-0.651055874308793,-0.666892226722287,8.06863648152162
5.4,-1.15989349397982,0.660191686505462,8.8308308059311
5.405,-0.783762621389093,0.825393848084068,7.74668854240149
5.41,-0.34558352147227,0.124630976777981,8.25135820808494
5.415,-0.312782825938515,-0.111349511483477,9.21371229501721
5.42,-0.805187512199208,0.523673879191104,9.05925009585713
5.425,-1.38208652438558,0.965246613702891,8.89116847868795
5.43,-1.13034555615975,0.430136706416229,9.42866502270688
5.435,-0.576332312348409,-0.174245700981195,9.93608950333757
5.44,-0.560853447416705,-0.308724560859994,10.1658856920083
5.445,-0.567081463270061,-0.331188803574023,10.220691126356
5.45,-0.573309479123418,-0.353653046288052,10.2754965607037
5.455,-0.896100316384356,0.221101758836122,10.0640088969207
5.46,-0.633509309057982,-0.129531240445869,10.2532957425178
5.465,-0.57573505330022,-0.175526809904782,10.3434412881477
5.47,-0.502772097463267,0.1025693230054,10.9382043603327
5.475,-0.368107033934042,0.258114539805104,10.6522504704407
5.48,-0.337020840021986,0.155054089407802,10.3866122680232
5.485,-0.451559101464978,0.13587385796303,10.4617826273903
5.49,-0.604991776408149,0.204904466775927,10.6446919974299
5.495,-0.612199471628614,0.282037537851881,10.6026068409169
5.5,-0.467927953728363,0.474194962830208,10.0491004254215
5.505,-0.385068984968921,0.343198881938262,9.86065638239565
5.51,-0.32846005180164,0.393996852744541,9.77686656197243
5.515,-0.340027254380561,0.424484551070695,9.76504888572795
5.52,-0.578143479067502,0.580639356607406,9.54576130831264
5.525,-0.515933852817604,0.463512847113637,9.28568551934569
5.53,-0.489493508207012,0.340296829728269,9.31985704787468
5.535,-0.493613693852673,0.335684456943469,9.34537291416977
5.54,-0.497733879498333,0.331072084158669,9.37088878046486
5.545,-0.501854065143994,0.326459711373868,9.39640464675996
5.55,-0.505974250789654,0.321847338589068,9.42192051305505
5.555,-0.510094436435314,0.317234965804268,9.44743637935014
5.56,-0.514214622080975,0.312622593019467,9.47295224564524
5.565,-0.545642114734028,0.286614617475936,9.42359164382441
5.57,-0.623461088457893,0.435208005186909,9.45386319066833
5.575,-0.557378424719925,0.285616037125086,9.33465829717623
5.58,-0.49310327016123,0.129552205639916,9.45522474040921
5.585,-0.563129333900603,0.0507246636606175,9.70964940271416
5.59,-0.615665879428169,-0.040874957748798,10.0286520519551
5.595,-0.574576572583397,-0.0650365796831449,10.1575535688982
5.6,-0.472829742412403,-0.229953168249655,10.2205717623261
5.605,-0.4197095221032,-0.260899420233911,10.1899037352836
5.61,-0.457654388205508,-0.301289809533814,10.0979928146683
5.615,-0.615755784758939,-0.488298269793057,10.1455609024218
5.62,-0.830270029615172,-0.257723647614352,11.3271979134435
5.625,-1.10745398066984,-0.0380251359297586,12.7185195716055
5.63,-1.39394606298632,0.231235729462761,13.3187182060622
5.635,-2.89710424931295,0.487571224838148,16.0140300792304
5.64,-2.58094394571724,0.0941497290486715,15.8207207534457
5.645,-1.72066327220631,0.299570892871502,13.1865121035752
5.65,-1.49108988198562,0.351134691961294,10.8039874616334
5.655,-1.61644769970397,0.838428190528724,9.78290030422014
5.66,-0.657047015709426,0.572359271168308,8.28322593824516
5.665,0.244880880034725,0.66829215040765,5.95935226767256
5.67,0.579460009695554,1.2274395664842,4.90240382402807
5.675,1.20646757215185,0.943283538539096,5.26279015122755
5.68,1.4206793387621,-0.800489263629568,5.77772059609828
5.685,1.24234639039109,-1.09412441742334,6.00502671411326
5.69,0.542345686864402,-0.0582105442365914,6.60927321878701
5.695,0.585351375809483,0.4559009792238,6.58616256912596
5.7,1.41825862168512,-0.0297450577491573,6.65874632274463
5.705,1.6721075914593,-0.565507380293969,7.24568174866741
5.71,1.0595884037042,-0.371100319472521,8.18725367705801
5.715,0.243484420538487,0.305447018331442,9.48545606122951
5.72,0.180284557710175,0.465156258548378,9.9145275239554
5.725,0.329434281034813,0.261491533948678,10.119491434629
5.73,0.685324579876877,0.111297434376181,10.4917539417996
5.735,0.578201011178201,0.148813873822682,11.16589894844
5.74,0.206154113320296,-0.0652012523563233,11.1364654220016
5.745,0.12518647396743,-0.072708460171425,10.7269989585791
5.75,0.318757948790494,-0.0275666606204673,10.5813341676266
5.755,0.469620265498867,0.021809875071441,10.3675822443711
5.76,0.400741301213403,0.137085140239409,10.0811060733313
5.765,0.372693445055395,0.170649929756842,10.0173420403177
5.77,0.362725374668533,0.180705306895062,10.0079799184462
5.775,0.352757304281674,0.19076068403328,9.99861779657476
5.78,0.342789233894814,0.200816061171498,9.98925567470328
5.785,0.394504154249994,-0.17630129002155,10.1453255131376
5.79,0.376530512619157,-0.182759691057634,10.0382162735844
5.795,0.521678567042908,-0.18445868629358,9.78276025330499
5.8,0.592794358790402,-0.264748388170053,9.77758251238606
5.805,0.571849944983919,-0.318703252671468,9.81666342195119
5.81,0.443569351572935,-0.377111363376554,10.0065102997236
5.815,0.289142714441754,-0.379344552355142,10.1433262124437
5.82,0.242496458023237,-0.401252585000074,10.117005750355
5.825,0.362781777590863,-0.541951155632516,9.95585292478578
5.83,0.447020645050636,-0.61161870963893,9.7947714692474
5.835,0.562129110721872,-0.440047923430014,9.57756916719236
5.84,0.673149050316046,-0.413195342990542,9.63530346942245
5.845,0.711033092953394,-0.50689831603407,9.62161940589202
5.85,0.644703735551662,-0.408056133690021,9.08025665987686
5.855,0.601795930827998,-0.338628267821358,8.87179509296187
5.86,0.58423757571529,-0.330322138288526,8.91352263298147
5.865,0.713517665466258,-0.310214693273921,8.82449055253916
5.87,0.769750021514492,-0.419242504184266,9.09737940266445
5.875,0.723000036883646,-0.445100895929853,9.09006441837207
5.88,0.599387405218987,-0.422274087184245,9.21011520288043
5.885,0.590659515336606,-0.420768537116531,9.25053409746289
5.89,0.592408853855684,-0.421296998203548,9.27656934991981
5.895,0.594158192374763,-0.421825459290565,9.30260460237675
5.9,0.595907530893842,-0.422353920377582,9.32863985483367
5.905,0.641060685793284,-0.245881985050877,10.3548716291049
5.91,0.792005425224992,-0.0639667056216303,10.8674946968814
5.915,-0.312924256218925,-0.145207457964911,14.6684973030879
5.92,-0.942499569669104,0.859073339788267,14.9740288155698
5.925,-1.04735470908699,1.17628273298098,14.8222471656858
5.93,-0.919621785053147,1.07214781923472,14.0768385772217
5.935,-0.821032180371863,1.33959881829307,13.1162436472634
5.94,-1.09545353775792,1.9346230122829,11.3739978103662
5.945,-2.64836427837985,2.24631084385893,9.69715934139727
5.95,-3.42778051827435,2.60617364780437,9.3592652805339
5.955,-2.78071868730432,2.65550312017554,8.33852156875923
5.96,-0.917859086391185,1.76587519173935,7.06474166713366
5.965,-0.0109703226792147,1.52929999540955,6.55221765515413
5.97,0.670287916538364,1.31608946690189,5.97081210205644
5.975,-0.460843982941419,0.894958970798936,6.61119843185158
5.98,-0.626798010667631,0.453300788042906,6.66849007992895
5.985,-0.0695071417844565,-0.27389493926158,5.9043501651866
5.99,-0.36799127426315,-0.617793770406848,7.06507246854248
5.995,-1.16828680410079,-0.137558966451361,9.17439650599251
6,-1.36358428086088,0.611452486394533,9.45140357408367
6.005,-0.605526173345085,0.970704019088814,8.18370337404763
6.01,-0.495094326799954,0.877695729461316,8.27562464035833
6.015,-0.193571749372926,0.535221127788404,8.68761625934711
6.02,-0.274731819725386,0.484167696307015,8.83724090367862
6.025,-0.355891890077845,0.433114264825626,8.98686554801012
6.03,-1.37633939496095,-0.0191803889783776,10.5890635447348
6.035,-0.964525671531359,-0.108095709951559,10.9137671956812
6.04,-1.06966965622037,0.228685038436648,10.6248995162851
6.045,-1.37685496661038,0.520025717016845,10.4891573716297
6.05,-1.43336507304272,0.516168786752433,10.6815696207113
6.055,-1.21446215836638,-0.0799601799424904,10.5310262181967
6.06,-1.11796771952542,-0.260491419067995,10.5115433145566
6.065,-1.05599899924701,-0.135157019941139,10.7299476205155
6.07,-0.875235992368474,0.526011309218143,11.1080911515234
6.075,-0.792857287687802,0.593151135530394,11.0163983567491
6.08,-0.682606401703028,0.10420543793708,10.6511743574397
6.085,-0.646977483194498,0.117036528942146,10.3329557195376
6.09,-0.778622306690515,0.366767934165986,10.1176498471515
6.095,-0.919176058136226,0.470979553166993,10.1156697343591
6.1,-0.82053849696469,0.605479873958432,9.88117465009715
6.105,-0.706194065896846,0.60809900197025,9.65568277655103
6.11,-0.558354188957797,0.5376570919602,9.31371400385012
6.115,-0.76455655646113,0.745678590053003,9.28345828519022
6.12,-0.96682332017564,0.944858903531804,9.0061462208776
6.125,-0.867174183066312,0.695949222793402,8.90114305046941
6.13,-0.844306733472287,0.63882951515855,8.87704695916169
6.135,-0.784519965806034,0.395048683770016,9.23409870915989
6.14,-0.838814565170903,1.0142134990529,8.75205244985349
6.145,-0.772573207317028,1.03290705993914,8.25901087785993
6.15,-0.6828272149116,0.584149641998053,8.64999594493595
6.155,-0.567637129903956,0.404423871416277,8.80253746835989
6.16,-0.730553578708628,0.152560616210972,9.05328438907968
6.165,-1.08261124720295,0.258628630815579,9.57856803376195
6.17,-1.13203144159662,0.511018035650437,9.31052690602876
6.175,-0.970004202992514,0.271645393081809,9.23998458251952
6.18,-0.988449100383335,-0.0577164127543637,9.7408142003248
6.185,-1.11188808410365,-0.0724161249426167,9.95636132981869
6.19,-1.23614090326021,0.0285721476031001,10.1863573848344
6.195,-1.14029663155706,-0.0460389722883471,10.252609435138
6.2,-0.890556587992367,-0.232640596662705,10.1748966348729
6.205,-0.754901747172237,-0.179451706750466,9.98317704085713
6.21,-0.839677294195649,-0.0645076854945923,10.0085567636272
6.215,-0.990493266469487,-0.125058880231086,10.0452080795955
6.22,-1.09251793928315,-0.254386582251888,10.9548187922873
6.225,-0.992899204711382,-0.0905298607075116,12.4187951116569
6.23,-1.08069491145057,0.00784135221290395,12.7242771071558
6.235,-1.16849061818975,0.106212565133319,13.0297591026547
6.24,-2.41004169788887,1.19208160026559,13.7089982914916
6.245,-1.96300581699865,0.841361682041767,12.5310370142851
6.25,-1.8235389799854,0.810588881805903,12.1044154239468
6.255,-1.68407214297214,0.779816081570039,11.6777938336085
6.26,0.195164046154679,0.648659384524094,9.63575352643397
6.265,1.18382771076809,0.772904707086091,7.17747088856281
6.27,1.27091428830012,1.01727045479835,5.4607681704119
6.275,1.04694281245375,1.16811870113108,5.52233640590973
6.28,0.787635107119919,0.684487957596867,6.29505795923939
6.285,0.538166882869357,0.458239510451991,7.0044866979419
6.29,0.999113595826517,0.265904719490516,7.41127882186148
6.295,1.53321914879667,-0.247018440808551,8.02910494416275
6.3,1.89008141788114,-0.0405655827420498,8.22954387256095
6.305,1.47881036642373,0.666225092307321,8.56659788923057
6.31,0.970133175465191,0.608665395126303,9.35651229686758
6.315,0.982815889908632,0.664721421346087,9.8880815904731
6.32,0.932975975023136,0.900158409944721,9.97915838335889
6.325,0.91059551570326,1.20535601970673,9.7622194214707
6.33,0.994511212816518,0.998930398933318,10.1181883427606
6.335,1.08019055889266,0.451670793291678,10.7656458888573
6.34,1.08259699681272,0.27520669495082,10.9204793355662
6.345,0.976634597103093,0.110272302854133,10.3023983064538
6.35,0.898864551680609,0.431206860888803,9.76353644248316
6.355,0.948977206088688,0.623848514952742,9.44635594387868
6.36,1.02596147348816,0.648640459669957,9.31820201129704
6.365,1.00652513605497,0.368319133280277,9.73509876412347
6.37,0.917868515054699,0.250894125918249,10.1615285369141
6.375,0.856550980984501,0.137684070067041,10.3831673172437
6.38,0.8240572629812,-0.0924131593138942,10.5185593990776
6.385,0.808233865274279,-0.267477211417604,10.6208088240956
6.39,0.803763343190808,-0.286855460599138,10.6497512837584
6.395,0.799292821107337,-0.306233709780668,10.6786937434211
6.4,0.768698393671419,-0.272733947088932,10.2520495246227
6.405,0.833033573830384,-0.381914954815741,10.3450650324301
6.41,0.837925453307182,-0.41672096929721,10.4831357892037
6.415,0.570536098435292,-0.45682589421065,10.5216902654716
6.42,0.572685976877308,-0.471914346761588,10.1956274980356
6.425,0.671733532720953,-0.50622861061976,9.95923475461658
6.43,0.763332063827302,-0.52825270756643,9.79607864891711
6.435,0.754753191759077,-0.397341008909167,9.68494281305722
6.44,0.71281924954639,-0.383188757164499,9.84744216164729
6.445,0.683401008337289,-0.404911366707847,9.69711601056839
6.45,0.667162127817902,-0.397543154971415,9.50819058282708
6.455,0.696626665461618,-0.246639038286858,9.07850413330073
6.46,0.774928541495922,-0.358706835002389,9.29904227320001
6.465,0.742847470438968,-0.269288650521407,8.93357466191583
6.47,0.763959393165208,-0.302148450502711,8.81731641806332
6.475,0.778215040305712,-0.213369300245538,8.76611550363071
6.48,0.766749035875065,-0.0615226274776101,8.63938568879212
6.485,0.73948035777409,-0.0312056918383014,9.03545243118524
6.49,0.712835747763566,-0.0283978301899606,9.41550461846253
6.495,0.762843697005104,-0.154468346726027,9.44967438143382
6.5,0.599038268579293,-0.223738931395529,9.59394602621472
6.505,0.660457821775336,-0.322122613574098,10.5805293257838
6.51,0.677800809692339,0.362806828145423,12.2995840084531
6.515,0.243708398571517,0.613517440935655,13.6091800461783
6.52,-0.0319186584179111,0.621008087046862,14.0585012310042
6.525,-0.64703459367267,1.15894774257444,14.6022251621056
6.53,-0.814855597306023,0.783662301149556,14.6151583050032
6.535,-0.682191232024985,1.3894871585047,12.5546152608193
6.54,-0.775774977895124,1.85104494565851,11.3478459509197
6.545,-1.9406693199775,2.96243609049735,8.43772096520873
6.55,-2.58834251785537,3.08743977475475,8.05929110235795
6.555,-1.84786053987506,2.2221593020221,8.4054647616094
6.56,-0.314500796724859,1.05936174868299,7.81693427681488
6.565,-0.00963958204310096,1.6535834526002,6.38170591138593
6.57,-0.680228940796363,2.45561309782589,5.94755131218625
6.575,-1.63456643127606,1.3605898319335,7.29091648148376
6.58,-1.42952524606566,0.521308259824008,8.44099102309956
6.585,-0.405041447874594,0.0734524822073552,7.59975678615122
6.59,-0.53098113295608,-0.977011996853569,6.97527043890166
6.595,-1.40328970081683,-0.707275732462333,7.89117101807526
6.6,-1.8834325767382,0.0997143448741444,8.28438428872845
6.605,-2.23447862530207,2.83813810043122,6.52194934954722
6.61,-1.83302461987705,2.03328945165195,7.11156936076212
6.615,-1.42399801605527,0.6444335519947,8.82391326849198
6.62,-1.49737372272493,0.641605990952595,9.08318445480344
6.625,-2.03007685471438,1.37071605915582,9.3036862029587
6.63,-2.04047359005681,1.31312779930938,9.9120770823605
6.635,-1.26518248570151,0.646846244576968,9.91965214466562
6.64,-0.852090725998387,0.335678177766621,9.84043033174194
6.645,-1.3348639620634,0.621938472494877,10.3298004106325
6.65,-1.892455008497,1.06229236651903,10.9519357098596
6.655,-1.73889968700603,0.956339161657753,11.0210126745462
6.66,-1.22702458482827,0.203279319714137,11.3693015029888
6.665,-1.20663179505228,-0.0598608218609698,11.9591329308987
6.67,-1.42808150323547,0.391658044506769,12.0684781176954
6.675,-1.5173075819298,0.569235287702798,11.780776654759
6.68,-1.36690003634384,0.338473881892804,11.5698645563037
6.685,-1.24447911015864,0.178720842859299,11.3644024106721
6.69,-1.23060477027694,0.202375585589196,11.3335106348659
6.695,-1.21673043039523,0.226030328319093,11.3026188590597
6.7,-1.44625105501406,0.550721230681789,10.7109545888327
6.705,-1.09941145150048,0.390997424723491,10.220407823345
6.71,-0.88055822866533,0.375656615304131,9.75480283522954
6.715,-0.814630375316635,0.629422766200129,9.37546323136852
6.72,-0.868588158541198,0.674573784214624,9.2945229889698
6.725,-1.11050509255128,0.472972479681571,9.17581878078821
6.73,-1.096443331967,0.37564779897509,9.28971929449305
6.735,-1.08055369301966,0.282248128632186,9.39826699742261
6.74,-0.805424901769827,1.04777120283789,8.4892727859532
6.745,-0.785208140581643,1.15648454745715,7.94958873733623
6.75,-0.482288436627641,0.712933958127035,8.57736030428423
6.755,-0.170027152671394,0.466390894064608,8.50316034258093
6.76,-0.277213998939975,0.399206632199338,8.72692764141535
6.765,-0.335015948190272,0.362976614898295,8.84759716852033
6.77,-0.514227243949131,0.46159893433223,9.0262557894446
6.775,-0.300231024008735,0.291734541005671,9.01025165312999
6.78,-0.274203076114856,0.0750365226090008,9.20697807806259
6.785,-0.391806028075243,0.174019358415328,9.42353859088462
6.79,-0.496621995549444,0.340478983634406,9.49327059645514
6.795,-0.342057087361661,0.185392774346054,9.50035590116241
6.8,-0.224492589548995,-0.0927519808703124,9.86164817877068
6.805,-0.364717464799503,-0.140020920425852,10.2082968130779
6.81,-0.41952339655091,-0.0909721306878167,10.2662813618554
6.815,-0.525397391315675,-0.167626655638783,10.3527536441894
6.82,-0.5453084202647,-0.195816338615497,10.2582201393873
6.825,-0.77824202393521,0.00447181221644093,11.4726446184653
6.83,-1.73825934930497,-0.507997087670538,14.471719637463
6.835,-2.62315070127428,-0.00197904258801006,15.2068663174586
6.84,-2.47905045652429,0.460779619465867,14.5991590220859
6.845,-2.2086439109094,-0.37650220845006,14.5712143887715
6.85,-1.86444618656411,0.0203176005618306,12.5759745814191
6.855,-2.06420993031454,0.376547280974032,12.3686789864587
6.86,-0.308902956029313,0.227735486988097,9.37781828715171
6.865,0.719118542591831,0.0140027249448067,6.96096279620863
6.87,1.09459580460729,0.0511626688803639,6.44525955854598
6.875,0.754038170220045,1.45555600335895,5.94451534213033
6.88,0.751827978166031,1.16607086254368,5.70892318444976
6.885,0.750847658768543,1.03767120681679,5.6044274861457
6.89,0.699266083179282,0.264853377559254,6.78414204474705
6.895,0.766346735692956,0.320212143405393,6.79281209771224
6.9,1.4269820086183,0.5851935617766,6.5808627645817
6.905,1.50690634478073,0.60763652255765,7.56407867002623
6.91,0.937513303092218,0.373769666510104,8.87655594431584
6.915,0.80326300319572,0.278762837628675,9.62201005323593
6.92,0.586432071001016,0.444178661025419,10.2280572859256
6.925,0.440416952324351,0.73615604933861,10.2922290782372
6.93,0.524313889891518,0.805474729220358,10.2777309508834
6.935,0.548294571680675,0.825288434612856,10.2735868785407
6.94,0.572275253469828,0.84510214000535,10.269442806198
6.945,0.624885514457923,0.817768265445537,10.312041504949
6.95,0.824363774864793,0.346838401510943,9.77496352762361
6.955,0.866592642323521,0.590072845631227,9.54273353824019
6.96,1.01904243470422,0.451044921506034,9.59506966896693
6.965,1.10308932152405,0.153397657279888,9.78490693994819
6.97,0.928545327186539,0.0937080404869691,10.1600878715338
6.975,0.747708234118401,0.0813960025596599,10.4484034214663
6.98,0.697420591783754,0.00149648710142631,10.4304903002708
6.985,0.714820952461349,-0.00851663259951876,10.4091908353044
6.99,0.732221313138944,-0.0185297523004638,10.387891370338
6.995,1.00847689919836,-0.203353832940777,10.3474178939039
7,0.891822094889099,-0.158083491224348,10.1257302437077
7.005,0.850528453085831,-0.236072595236531,10.3123254688013
7.01,0.898735174506645,-0.243397723813482,10.3726689207552
7.015,0.917059111919893,-0.23531369424203,10.3353007974793
7.02,0.935383049333137,-0.227229664670579,10.2979326742035
7.025,0.804172964528165,-0.200427387753263,9.95825422911788
7.03,0.864302637348916,-0.156636945342885,9.83869833672944
7.035,0.922286291375472,-0.176307194780209,9.77970063667345
7.04,1.21349783966008,-0.404669982454492,9.99858776420481
7.045,1.10857514358226,-0.237815747838615,9.45408969973615
7.05,1.0032338264437,-0.0907614441962103,9.06114090839619
7.055,0.861042494680959,0.133525912306649,9.06400119943569
7.06,1.1142207278294,-0.02904433208659,9.41275590721158
7.065,1.12393578393166,0.0194161665626323,9.29417020867424
7.07,1.0995200653744,0.0516071630127502,9.29195703101025
7.075,1.09080083009752,0.0631030717318632,9.2911666706235
7.08,1.08208159482063,0.0745989804509761,9.29037631023674
7.085,1.07336235954375,0.0860948891700891,9.28958594984999
7.09,1.11514382943815,0.176713545644274,9.40395010708206
7.095,1.09952487019343,0.261733721755321,9.2735018051204
7.1,0.949780907818967,0.242798213083235,9.21832766784974
7.105,0.792179244754559,0.181604530927246,9.63835765101153
7.11,0.873504991207253,0.368454595425961,10.9857116778478
7.115,0.908302374124106,0.468145400764146,11.4254396146785
7.12,-0.552285332615472,0.313931933045417,14.4548094982062
7.125,-0.640316920166231,0.947491202406052,14.2080231050735
7.13,-0.706846947225956,1.31536292616787,13.8428497801034
7.135,-0.672205670632526,1.50610394082376,12.9418297682667
7.14,-0.649853324843289,2.14971938335863,11.2951041197991
7.145,-1.24879282678415,2.92315377375474,10.440592757043
7.15,-1.56930251670938,2.97541936959969,10.7896485101448
7.155,-1.54970103317616,2.8807341599763,10.727208293778
7.16,-1.53009954964295,2.78604895035292,10.6647680774113
7.165,-0.119516074254597,1.23176608127514,7.50234520589289
7.17,0.0131102025819044,1.26930446665039,6.50461574231716
7.175,-1.15472720159002,2.03644812371933,5.6815585920345
7.18,-0.632908946105937,1.20149857198673,6.08093355914457
7.185,0.0394093091212852,-0.304232528889894,6.37761411915475
7.19,0.20198687266976,-0.833601985088802,6.09811262992942
7.195,-0.647063823895562,0.296187954173939,6.82116425266144
7.2,-1.21548920617856,1.11916697684136,7.32714525135414
7.205,-1.26465871147004,1.27558781546153,7.25746965632354
7.21,-1.31382821676152,1.4320086540817,7.18779406129294
7.215,-0.312990125979145,0.461482829342949,7.26092825215853
7.22,-0.807470870586412,0.706596436541881,7.92521057613202
7.225,-0.886531094786696,0.80871655316792,7.95346520052981
7.23,-0.965591318986965,0.910836669793941,7.9817198249276
7.235,-1.04465154318724,1.01295678641996,8.00997444932539
7.24,-1.12371176738751,1.11507690304598,8.03822907372317
7.245,-1.20901042481947,0.566318862680806,10.8170912324784
7.25,-1.23368658489374,0.84618004072716,11.1773007734187
7.255,-0.943401208059711,0.412664490897535,11.4526711367024
7.26,-0.838562689482037,0.1409754987747,11.5481454229621
7.265,-1.10883220148653,0.0666298212084417,11.8199172231852
7.27,-1.33059116044106,0.173097746701192,12.0230574519422
7.275,-1.1646676700129,0.333100844009344,11.9461121364359
7.28,-0.992397133692491,0.273252952653525,11.7034370262633
7.285,-0.975358456598111,0.266220537489156,11.6786893698476
7.29,-0.958319779503732,0.259188122324787,11.6539417134319
7.295,-0.941281102409353,0.252155707160418,11.6291940570162
7.3,-0.924242425314974,0.245123291996049,11.6044464006005
7.305,-0.725308048268895,0.544054590840379,10.1222569631252
7.31,-0.626978322849236,0.483091117248501,9.89033212377654
7.315,-0.603987877267882,0.486814957381431,9.81671928543643
7.32,-0.532719628719041,0.672025731856429,8.90806586302693
7.325,-0.758512684552131,0.758767518576123,9.01382687542782
7.33,-0.898813767323619,0.803114389466368,9.44380229646122
7.335,-0.816128623968562,0.935125899413684,9.71253149709384
7.34,-0.758219888414518,0.984475060981777,9.74467126595856
7.345,-0.0965831106261036,0.500747839902367,8.9728938688037
7.35,0.0513615512469024,0.494596242840882,8.70524118688058
7.355,-0.155150494904812,0.835529165945037,8.74486462773432
7.36,-0.473778254214718,1.0470357207917,9.01805399610944
7.365,-0.597313167858332,0.784399971466732,9.45670636295383
7.37,-0.515550973937195,0.48352384801905,9.54363822209443
7.375,-0.508287952432082,0.627615936604633,9.43789384935248
7.38,-0.507117877748579,0.774190157499962,9.45626482455674
7.385,-0.426814350125498,0.711222119698914,9.60650991286261
7.39,-0.303193244236144,0.572016066764483,9.69984862087195
7.395,-0.275215747507618,0.548349643971241,9.71475987473823
7.4,-0.463187754741003,0.592098253944067,9.85319064389433
7.405,-0.500958633718822,0.621218736100591,10.0167392834671
7.41,-0.713856552643422,0.194528535556308,10.1655964876746
7.415,-0.746076038378184,0.0132965151787876,10.4538505192963
7.42,-0.981664265253261,0.317175564404153,10.9852533266678
7.425,-1.00491861475348,0.322744020655725,11.0142405230803
7.43,-1.0281729642537,0.328312476907296,11.0432277194928
7.435,-1.05142731375392,0.333880933158869,11.0722149159053
7.44,-1.07468166325414,0.33944938941044,11.1012021123177
7.445,-1.09793601275436,0.345017845662012,11.1301893087302
7.45,-1.12119036225458,0.350586301913583,11.1591765051427
7.455,-1.1444447117548,0.356154758165155,11.1881637015552
7.46,-1.16769906125502,0.361723214416726,11.2171508979677
7.465,1.1306772881916,-1.19609993032202,7.87369327311368
7.47,0.954615015190786,-0.268206825846711,6.04158298498729
7.475,-0.840551880557109,0.374029644547992,8.10857250001388
7.48,-1.02806664525297,-0.708209660478157,8.12448137879139
7.485,-0.530897563782407,-0.743260778132052,7.35522209083572
7.49,1.29647171596214,-0.377223132338048,5.42012601652133
7.495,1.25645574696178,0.786116788700063,4.11250630722299
7.5,1.55551008081407,0.964823950271081,4.5701495722253
7.505,1.48671803210554,0.946966749565329,4.62378882829217
7.51,0.609124542576773,0.800489060907043,5.69462659301088
7.515,0.501218579657767,0.540172706626793,6.80909537755415
7.52,0.539013615882483,0.104024677249772,7.84998456837654
7.525,0.563609175724641,0.0945443435112671,7.87057602100663
7.53,0.5882047355668,0.0850640097727618,7.89116747363673
7.535,0.612800295408958,0.0755836760342566,7.91175892626682
7.54,0.637395855251117,0.0661033422957513,7.93235037889692
7.545,0.661991415093275,0.0566230085572461,7.95294183152702
7.55,0.686586974935434,0.0471426748187408,7.97353328415711
7.555,0.96360235193308,0.208823746983981,10.8298806312339
7.56,0.974822658381494,0.16648850667366,10.6453192637812
7.565,0.928695218633773,-0.291742510988904,10.9736953584284
7.57,1.00667845771125,-0.388633616364324,11.2596373473883
7.575,0.921738172514996,-0.366273604435502,11.1079278490048
7.58,0.809096360735773,-0.220003588764296,10.4976440260885
7.585,0.80420003920722,-0.216183286205615,10.4646692605201
7.59,0.799303717678667,-0.212362983646934,10.4316944949517
7.595,0.794407396150115,-0.208542681088252,10.3987197293833
7.6,0.789511074621561,-0.20472237852957,10.3657449638149
7.605,0.649561821425012,-0.314249474748995,9.52197540509166
7.61,0.556049236717714,-0.321122506870796,9.60653926342309
7.615,0.5838674458074,-0.659015247230232,9.7382817762442
7.62,0.561073841411603,-0.842722995260749,9.60793406431189
7.625,0.550564967180203,-0.815353866721643,9.55667601917694
7.63,0.54228467871109,-0.779547835023126,9.49880479834288
7.635,0.534004390241977,-0.743741803324609,9.44093357750883
7.64,0.758640592239575,-0.703155880371761,9.50834692511252
7.645,0.93227489639922,-0.72573866006589,9.7665062566649
7.65,0.688860365796922,-0.458741921386196,9.6797678449704
7.655,0.457216578655622,-0.36714827693715,9.36318611267595
7.66,0.638124552875666,-0.513879979778462,9.53795004229749
7.665,0.803109369382552,-0.496441946911866,9.44318143558761
7.67,0.751695633294349,-0.347529042094487,9.34587973270169
7.675,0.597578565734345,-0.17871752869278,9.32708906007137
7.68,0.562885545804353,-0.0935612893241195,9.40091826421612
7.685,0.680603159171379,-0.118161544533367,9.47842084929685
7.69,0.794172672578475,-0.186491615563177,9.45897039961118
7.695,0.747483974871582,0.0429145132579193,9.34773364200309
7.7,0.63320863413641,0.167975215274183,9.46634284002727
7.705,0.594546309647494,0.0697116702027999,9.94378904930828
7.71,0.654396873012909,-0.051062937461188,10.3621117159665
7.715,-0.0913839936657915,-0.0416621312863044,13.7493999245456
7.72,-1.35791757522696,0.171360920489161,15.6763969399477
7.725,-1.71361253436014,0.538646497172133,15.69981584
7.73,-1.31702398740187,0.862016301057068,14.4935333063492
7.735,-1.3158209729337,1.94167537236371,12.0349834583586
7.74,-2.01223315903156,3.0202689575666,10.3118387237293
7.745,-2.73279211672757,2.23463041693241,11.414336109571
7.75,-3.25498448014849,0.924794526258033,12.8338193154373
7.755,-2.25887553273387,0.66655747020106,12.0195129839311
7.76,-0.0985173741849795,0.464690190003743,9.56464408527597
7.765,0.755691722520906,0.459610081767439,7.82654063034646
7.77,0.652490334529101,0.361025803421682,7.59838199743881
7.775,-0.819006578264153,0.541309870090772,6.25443520789092
7.78,-0.241194436828643,1.55523709284362,5.17670025663462
7.785,0.108127227709314,-0.0856390892064379,5.07564746151198
7.79,-0.555463657067944,-0.62559608836446,6.03768615206273
7.795,-1.14375920752535,0.100735402725117,6.69529605793148
7.8,-1.15955498920119,1.54637340495756,5.6314834264528
7.805,-0.936796605572605,1.75722542585204,5.07343635147695
7.81,-0.514771917548548,0.666939486915632,6.47943273198807
7.815,-0.433796564069582,0.544245549344341,7.43780723119716
7.82,-1.26953351445976,0.959747814828901,8.16325095771765
7.825,-1.575350498191,0.719313379672835,9.01136467032734
7.83,-1.55158847461615,0.513009330362291,9.50199408567873
7.835,-1.48621478783843,0.490876047681818,9.58318956819411
7.84,-1.4208411010607,0.468742765001344,9.6643850507095
7.845,-1.20505775789322,0.882467104924843,10.5987234801256
7.85,-0.944096212190281,0.854772044382389,10.8041402423996
7.855,-0.848047961803114,0.485458601349071,10.816300950153
7.86,-0.915810311070407,0.246513832470623,11.0871266618055
7.865,-1.00262308832304,0.436190476447865,11.5600519676135
7.87,-0.874232469745354,0.776294238284826,11.5229307317437
7.875,-0.640603091607069,0.821505720500135,11.0401664993162
7.88,-0.547342878082591,0.56526708083391,10.8522496155251
7.885,-0.617444336628665,0.46002545492857,10.9575307898537
7.89,-0.66661150433479,0.695397696389875,10.6969261059424
7.895,-0.684595761198958,0.867048829305997,10.4401276808595
7.9,-0.543932508660042,0.92333584201908,10.0276083047153
7.905,-0.455794942485612,0.778133638457903,9.95445836884734
7.91,-0.456695949363206,0.694748476428092,9.81802424307426
7.915,-0.679202255421518,0.771303358731696,9.385886248591
7.92,-0.731184557524144,0.865707005754961,9.24040584980025
7.925,-0.701614418171416,0.971562288475572,9.17180410068113
7.93,-0.720215338511708,0.964876511700991,9.16053853512692
7.935,-0.725266551007212,0.933539686547378,9.22707140774845
7.94,-0.730317763502717,0.902202861393764,9.29360428036997
7.945,-0.0024135033218893,0.646459303387192,9.10368591966303
7.95,0.10476381601237,0.720609885491526,8.56382714926447
7.955,-0.0634802350070985,0.968436678912913,8.48273652513477
7.96,-0.267454482832112,1.21847119961619,8.5692739719157
7.965,-0.440160542376451,1.11652985341669,8.80599059942631
7.97,-0.489035502499339,0.958718675832003,8.92729646483061
7.975,-0.453778871695455,0.922884166621448,8.95302519787423
7.98,-0.418522240891579,0.8870496574109,8.97875393091785
7.985,-0.174970316461719,1.09983958390578,9.04643671803576
7.99,-0.124407945614842,1.03039119563924,9.11648741064955
7.995,0.00303087612944778,0.988600818975846,9.38299293541939
8,-0.170885206961443,0.939748680860635,9.84356079195553
8.005,-0.208439256530466,0.933656952663393,9.89321109430752
8.01,-0.245993306099476,0.927565224466153,9.9428613966595
8.015,-0.2835473556685,0.92147349626891,9.99251169901149
8.02,-0.32110140523751,0.91538176807167,10.0421620013635
8.025,-0.358655454806533,0.909290039874428,10.0918123037155
8.03,-3.01689656093827,-0.838300306700177,14.1555327047539
8.035,-3.06639250068444,-0.928546821283697,13.5021598685821
8.04,-3.5579773881504,-0.859307844040297,14.1753469527647
8.045,-5.27142458744478,-0.269828062056844,15.3912681031714
8.05,-5.77040208580944,0.624759673126681,15.4448986765278
8.055,-3.76109636966835,1.7039253577021,15.0105674506866
8.06,0.0166146921884954,-0.00020849300911896,10.5159418891109
8.065,2.10087914069498,-1.45519034798606,7.86770265590346
8.07,0.339943838406709,-1.03792542769149,9.13095001640965
8.075,-1.71749868136761,0.960801876261368,7.0831228416052
8.08,-2.0429233107907,-0.424967218604421,6.18573890386735
8.085,-1.06626515791543,-1.48038483542624,5.92710440801258
8.09,0.591347561932976,-1.19765825015482,6.17815809846344
8.095,0.84903104635314,0.454378763792099,5.78475909669172
8.1,-0.363922242184121,2.113607806597,4.1552470549933
8.105,-0.334156454559715,2.0685975397234,4.20296579040968
8.11,-0.304390666935319,2.02358727284981,4.25068452582605
8.115,-0.274624879310913,1.97857700597621,4.29840326124243
8.12,-0.244859091686506,1.9335667391026,4.34612199665881
8.125,-0.676391163968701,-0.198340532284998,8.07129332156105
8.13,-0.435655496026385,0.160452109675745,8.55030170938094
8.135,-0.373255688621716,0.262206673798985,8.67707323020138
8.14,-0.032457298843843,-0.40365264371812,9.44205234633279
8.145,-0.410809800564536,-0.433424093759705,9.83499440362305
8.15,-0.769213952868856,-0.186512703804015,10.239575521354
8.155,-0.835844276522958,-0.129452571739951,9.9927758113981
8.16,-0.462587059446798,-0.334878062242085,9.65213286138636
8.165,0.174309222786154,-0.736139609971978,9.47632689832328
8.17,0.220085355248304,-0.636857389086275,9.63311054221835
8.175,0.156105251443678,-0.464649566037023,9.54924928071986
8.18,0.180530752238418,-0.531269890100758,9.4541990517557
8.185,0.188280978791444,-0.552347999519977,9.43281363200095
8.19,0.196031205344468,-0.573426108939188,9.4114282122462
8.195,0.203781431897494,-0.594504218358407,9.39004279249145
8.2,0.243844632672577,-0.857477591746441,9.15389683517912
8.205,0.150411616607991,-0.746182573335394,9.49329005017728
8.21,0.0625734326461823,-0.927404332290366,9.88053481989042
8.215,0.10582157719033,-1.14475315694771,9.89100999621793
8.22,0.156695995281218,-1.19006173699896,9.92567686078239
8.225,0.205536620989268,-0.97318645183593,9.73562645883393
8.23,0.211967291173577,-0.812398497769146,9.39894943843812
8.235,0.235306256248495,-0.761574724585328,9.38545256491579
8.24,0.459722794114072,-0.992170847277851,9.83877409485978
8.245,0.458939976992306,-1.15193887324193,9.98215080360775
8.25,0.242035570808865,-0.790771216210292,9.3280475498399
8.255,0.158492886341885,-0.522543405792864,9.34733957362385
8.26,0.233411465522316,-0.565448870593098,9.39662942043267
8.265,0.45836809577402,-0.62614216702424,9.13441935621309
8.27,0.227576608541177,-0.558465413602599,9.40660173234597
8.275,0.172530720930605,-0.519631207054788,9.38245312080042
8.28,0.0189847435822413,-0.407718415212848,9.30459812292339
8.285,0.163954214190842,-0.395957829025109,9.16785924107038
8.29,0.428679145594886,-0.290754557686832,9.13247067400429
8.295,0.534126186838643,-0.23666125940913,9.06034396584579
8.3,0.455143582655447,-0.143891223002224,8.94621975212664
8.305,0.416471696811175,-0.115067013088309,8.90455026648287
8.31,0.160944818510682,-0.124473530949598,9.2570323852808
8.315,0.22701188476579,-0.292277731477215,13.0680319545685
8.32,-0.611677744594485,-0.377717632508556,15.4907928505366
8.325,-1.43295874804492,-0.28611392877774,15.6817967673266
8.33,-1.55293308504127,-0.0634723939791707,15.458367140953
8.335,-1.05482716004451,1.27106350708965,13.6920081036985
8.34,-2.1341009349159,1.98067142742765,12.1315738117236
8.345,-2.74839340502183,2.31064477768154,12.0774149970331
8.35,-2.65094446644599,0.939587760314179,12.6704316568076
8.355,-2.64827364261933,-0.439025926964738,14.0683739323632
8.36,-2.04393335127182,-1.34792041883953,13.7556645220131
8.365,-1.37643092072562,-0.0916589158255754,10.2045000417746
8.37,-0.639584549669078,1.19339612950574,8.75414907956218
8.375,1.48119945129344,-1.23591098945165,7.67144612728759
8.38,1.97391954045394,-1.38731967335994,3.62184474530233
8.385,-0.060686983862809,0.990694798764501,2.78891212943847
8.39,-1.43200449950357,2.20475074687218,4.24982594706217
8.395,-1.56607265833442,1.81710448876634,5.19419758086618
8.4,-0.0737550593993321,0.546776336912573,6.17565428073613
8.405,0.499969139384871,-0.0405488002075442,7.18334200073969
8.41,0.346122265467265,-0.110829355340607,7.20297134778205
8.415,0.0336839186325716,0.194383172863058,8.19260359766577
8.42,-0.552852678378129,0.20864477693149,8.92847294674332
8.425,-0.864344797566954,0.171527453809069,9.32833806888454
8.43,-0.759865471158765,-0.0630871631017131,10.0448035780047
8.435,-0.636153081224046,-0.166383223946325,10.161302061954
8.44,-0.374036443314114,-0.0346933664360894,10.6565979789356
8.445,-0.547088493850815,0.297978702454521,10.7414536951962
8.45,-0.750532432778552,0.446290681051697,11.3535771556175
8.455,-0.485067150490941,0.159672402175749,11.5101733851573
8.46,-0.113139184175834,-0.371397929852862,11.8241545548242
8.465,-0.238186481527946,-0.0827562181074377,11.8133361356364
8.47,-0.422232132724551,0.584197180490928,11.1409957505047
8.475,-0.332640419763661,0.740866320726762,10.6886850276834
8.48,-0.0497272237239824,0.504521367687927,10.3778920139224
8.485,0.0258630851374758,0.4132479849157,10.251504718125
8.49,-0.0729306950322381,0.580393444141629,10.0387202208073
8.495,-0.12919609893545,0.704834492482537,9.89058194698483
8.5,-0.127113207570684,0.732040398043829,9.83262758816804
8.505,0.235204609428682,0.485088036822783,9.34147261105924
8.51,-0.0362140854080204,0.658823468620832,8.77419532122197
8.515,-0.250422193700794,0.804967789337867,8.71698921769742
8.52,-0.283173744060364,0.872702174160202,8.77265317706274
8.525,-0.240048512105873,1.08886441099465,8.85131990807644
8.53,0.270061189728178,0.555910542929376,9.23994534527431
8.535,0.506332927145638,0.505994021280989,9.61357406323947
8.54,0.484578180253191,0.701213433414559,9.76696484884706
8.545,0.268991998738917,1.02312245487982,9.53032599479126
8.55,0.0851154175330569,0.970220775596972,8.82765122026188
8.555,0.131764488442967,0.761371286893763,8.8044748221943
8.56,0.128530813682787,0.749315878098799,8.9041046652939
8.565,-0.13171665039044,0.982262719783633,9.23221727520787
8.57,0.026452473562678,1.0131394166703,9.14015539614227
8.575,0.282013604687159,1.14785814838702,9.13114574721516
8.58,0.381665296015807,1.14064195647928,9.11905368669572
8.585,0.236344463582066,1.221161500427,8.90757551933146
8.59,-0.00194887460627269,1.26203057449239,9.16269894133586
8.595,-0.0528568995175151,1.06047104050323,9.7707630355524
8.6,-0.27483900274016,0.559504193208395,10.3000184896973
8.605,-0.575570452267798,0.539665760137469,10.9837021113033
8.61,-1.50691576994447,0.730546655369083,12.5811323753554
8.615,-2.14991678518234,-0.257648216195745,13.8474500761791
8.62,-2.47173681981659,-1.20177452182641,14.8378838814004
8.625,-2.67285436542617,-1.7412942262015,14.969291114753
8.63,-3.06286830588776,-1.74426089043201,14.2177669482752
8.635,-3.36767820348888,-1.15672508722734,13.9303282903203
8.64,-3.3916764756482,-1.08727233195595,13.9231163809099
8.645,-3.41567474780751,-1.01781957668459,13.9159044714995
8.65,-3.43967301996683,-0.948366821413201,13.9086925620891
8.655,-3.46367129212613,-0.878914066141836,13.9014806526787
8.66,-1.02266791416744,0.0939599655398721,11.1949360354035
8.665,0.109912392994799,0.270527493954759,6.19709507430929
8.67,0.757964930880123,-0.309970543556247,3.84479155050843
8.675,-1.23626686508612,-2.19352739015225,7.04917501042635
8.68,-3.56811737058498,-1.42752236835212,7.8994560205141
8.685,-3.20540262587015,-0.294115240584487,6.90633164699796
8.69,-0.0800463538521042,-0.147077261082394,5.08468200172731
8.695,0.066921745680386,-0.473683176468614,5.81595352787224
8.7,0.128367829497362,0.21556490266632,5.67021882534092
8.705,-0.12824823743376,-0.0300893094559362,5.92559917200034
8.71,-0.250970439977163,-0.862532437425454,8.18296760686504
8.715,-0.499706280504151,-1.41710190491226,10.3326886221432
8.72,-0.848810386748474,-1.26108646347208,11.1248503056402
8.725,-0.762029552882138,-1.19232488175813,11.1299639194534
8.73,-0.350954503305149,-1.05292709988658,10.6901289942345
8.735,-0.284575584846546,-0.994367165628012,10.6188477807411
8.74,-0.280312412479861,-0.945388723041114,10.5829916203224
8.745,-1.03064859344872,-0.492003384073459,9.62277410524087
8.75,-0.930497074019884,-0.552222980885372,9.75102625891977
8.755,-0.643719155426515,-0.981705241613293,9.69929204558149
8.76,-0.370979859854275,-1.36006963161108,9.39884656453631
8.765,-0.277538142468214,-1.43817327255698,8.78921964557182
8.77,-0.422016959518643,-1.06806522332872,8.52559264887314
8.775,-0.548475999617726,-0.795697411663061,8.28945856697468
8.78,-0.565451956875069,-0.847528688430213,8.2067552637478
8.785,-0.329979038597236,-1.2763152313663,8.31815492181239
8.79,-0.202435184477392,-1.37382265483245,8.51539118422249
8.795,-0.360324202722542,-1.53899391814684,9.12920504499752
8.8,-0.60133756068286,-1.5048667003201,9.31476087207999
8.805,-0.682555392890992,-1.51046742780519,9.48690124781173
8.81,-0.886902983136902,-1.5562504964098,9.78583897733836
8.815,-1.06238869036936,-1.63385322873449,10.0567008533658
8.82,-0.974424898875717,-1.83630722518381,9.85724556782267
8.825,-0.768045392561777,-1.80094452403869,9.55911574914277
8.83,-0.619659859479699,-1.74328978271048,9.4701938196722
8.835,-0.709585963424033,-1.79027152800542,9.72520577304432
8.84,-0.897144388625578,-1.78729743400154,10.210747397213
8.845,-0.994511265562391,-1.8080235961832,10.0412519589818
8.85,-1.00988374832572,-1.81869281421856,9.95522554079627
8.855,-1.02525623108905,-1.82936203225392,9.86919912261072
8.86,-1.24525243248575,-1.4901979523819,9.50492643014298
8.865,-1.37901564695068,-1.60440023061429,9.58136853503951
8.87,-1.46586858819399,-1.86028939028436,9.84276666740833
8.875,-1.56640984081631,-1.84688495622525,9.78700063136253
8.88,-1.54339637174713,-1.62003829780926,9.37598207778582
8.885,-1.42832066485688,-1.47879672345994,9.41913446078044
8.89,-1.21505192370698,-1.40662810587375,9.19712001667675
8.895,-1.11381999923077,-1.48567457543141,9.09608571615757
8.9,-1.01360004596838,-1.57040495310552,9.12386230792425
8.905,-1.18705348137439,-1.50022065082682,9.14943146009931
8.91,-1.39249851937714,-1.40260743102671,8.94938639570985
8.915,-1.49565686357197,-1.37188846990894,11.2969525942602
8.92,-2.25908071181627,-1.94104718848481,15.4577159564208
8.925,-2.88164914020664,-1.96145266185841,15.4737523194794
8.93,-2.4913944239755,-0.801128952044232,14.3572732263586
8.935,-2.34144404067711,0.220168974862769,13.4515939825972
8.94,-2.39185529619216,0.390541301258284,13.3079313123498
8.945,-4.29916741400518,-0.167421020899668,13.4868382513779
8.95,-4.44011478715764,-0.705955475724317,12.9583030903928
8.955,-4.41995629733316,-1.00430271215708,10.5461732854428
8.96,-4.41544224512371,-1.0711110402376,10.0060296551256
8.965,-0.643508560024908,-0.555905068615383,10.892298122325
8.97,0.166868629719993,-0.558064071346667,8.51525057302863
8.975,0.629326494991752,0.180525284212808,5.33677687591889
8.98,0.023173317940893,1.38920570449112,4.09979701757613
8.985,-1.31187540567996,1.2313894837154,5.58565793905528
8.99,-1.52239167502141,0.737391941808685,5.67098397140774
8.995,-0.826686423990946,-0.262638617356339,6.74702070733658
9,-0.386891449480357,-0.0909286744806271,7.5412326952453
9.005,-0.41980343065205,0.582962746606468,7.77245250755434
9.01,-0.426789480018839,0.965657114960189,7.6824085810414
9.015,-0.292709476438392,0.886767184547447,7.8094502526383
9.02,-0.413180513205142,0.41524897206829,8.15318985291821
9.025,-0.964784203030415,0.478649408639289,8.34986453441985
9.03,-1.03362221550587,0.594929691986256,8.36368094294871
9.035,-1.08922515140638,0.688853454583844,8.3748409525158
9.04,-0.550539322975126,0.871699358188758,9.13597782724084
9.045,-0.483653854339056,0.788602617635622,9.29692146983353
9.05,-0.479993682713464,0.741337852063583,9.89095519976
9.055,-0.460684993194658,0.772701684917349,10.0749845819551
9.06,-0.475522757126897,0.75686136011587,10.3042470969091
9.065,-0.427723239488283,0.863874849310517,10.7341908284095
9.07,-0.28754436422164,1.04776771704418,10.8363697661157
9.075,-0.122663047452803,1.05406798616321,10.9309584663927
9.08,-0.148438694805545,0.893294854687854,10.8347510366503
9.085,-0.14539637567362,0.828870674309883,10.8323402354227
9.09,-0.086180400810835,0.849347297996689,10.9040926956368
9.095,0.0177271291799379,1.05822530607528,10.7809598766519
9.1,-0.00534927546937375,1.07721764797804,10.6974975750401
9.105,0.159101266951565,0.785914841568319,10.3088763926825
9.11,0.22732427750244,0.714114449004408,10.3323142774123
9.115,0.057913542448122,0.879301407584181,9.54803371897416
9.12,-0.154999219103413,1.01114439793686,9.55068604535319
9.125,-0.32844624506826,1.13957719771694,9.73776459362051
9.13,-0.115507491998615,1.02914192521308,9.38322450082889
9.135,0.086830856608818,0.796585228299511,9.42436907587929
9.14,0.256972290064182,0.553082677366582,9.83080448123813
9.145,0.235397079686191,0.708457124693911,9.46321104340636
9.15,0.214110661707979,0.801469620370162,9.20682916862251
9.155,0.0912323310567172,1.01507076709216,8.37389725145515
9.16,0.084438064677703,1.03122705660704,8.4169846394164
9.165,0.0384126375623266,1.02855281729949,8.42826756257168
9.17,-0.18486046429474,0.93679960835265,8.54324211905014
9.175,-0.233909621303007,0.833550848873315,9.03456285781575
9.18,0.0358824694517284,0.659143785948437,9.23806262230607
9.185,0.113202894389309,0.815632669456345,9.23210427810905
9.19,0.0937575109412655,0.91864717657753,9.21134773246557
9.195,0.126720182168157,0.842928556549866,9.27253445384437
9.2,0.269893257442843,0.594684491635021,9.49296538061734
9.205,0.100766356413086,0.812240516845864,9.82375910443442
9.21,0.0240813348565934,0.814177374013946,9.89718409818085
9.215,-0.0526036866998723,0.816114231182028,9.97060909192724
9.22,-0.129288708256365,0.81805108835011,10.0440340856737
9.225,-2.08578017122236,-0.704069449197384,13.8929018612932
9.23,-2.0433058855302,-1.3100742439036,14.4262294830137
9.235,-1.94932835048121,-1.30452609418617,13.7107109588014
9.24,-2.61619805542976,-1.27538997325796,13.1112051379251
9.245,-3.56446666337579,-1.18691321031277,14.0885353448697
9.25,-4.52390989184834,-0.945922663257905,15.5910080636891
9.255,-4.13903655376312,-0.457511481805408,15.2377152000677
9.26,-3.42455284436705,-0.493583655888465,14.4744422406807
9.265,-2.71415774254312,-0.529449408240473,13.7155370836107
9.27,0.278900250555494,-2.2965065773525,9.91336408160342
9.275,-1.15245098703474,-0.491486907235367,8.45463908832529
9.28,-1.74138139423134,-0.00459278213041248,6.22600930758548
9.285,-0.533943362954023,-0.528457220193453,5.36784246460877
9.29,0.75074606418688,-0.793435569525173,5.68523270096803
9.295,1.31889516059048,-1.2214619539395,7.16383931224831
9.3,0.498088593641769,-0.181501744412501,6.12069693922638
9.305,-0.522541956411675,0.48786100012518,6.01346119568997
9.31,-0.368496597888277,-0.47084813804769,7.95269787631092
9.315,-0.184293702683641,-0.770026583318104,8.29945991080396
9.32,0.429258835512427,-1.67173142086918,9.70737313371982
9.325,0.374579942008235,-1.52971622602545,9.71731049410558
9.33,0.319901048504064,-1.38770103118177,9.72724785449134
9.335,-0.16691210399388,-0.586180017379872,10.6637133532163
9.34,-0.051822233977532,-1.19973143518065,10.6757152894053
9.345,-0.0747819572156194,-1.26057823775443,10.6239740820671
9.35,-0.502280947677887,-0.398816786448032,10.3977728329697
9.355,-0.402598237896667,-0.257249126767401,10.0547403613742
9.36,-0.128848646118483,-0.517369636213707,9.74105340634975
9.365,0.146883588458195,-0.945970664425566,9.65235304407071
9.37,0.0335089563227897,-0.955112928765905,9.60637734760201
9.375,-0.138793282479961,-0.740952502753622,9.49057671706222
9.38,-0.33997907394284,-0.514296870766417,8.71548640114538
9.385,-0.0994910344714562,-0.816733968356554,8.69688904963455
9.39,0.0367520706718475,-0.99393072980819,8.78582374998193
9.395,0.0512624451042157,-1.01334870453132,8.79064155267875
9.4,0.065772819536589,-1.03276667925446,8.79545935537557
9.405,0.0802831939689572,-1.05218465397759,8.80027715807238
9.41,0.105784056350666,-1.23387722773139,8.85695098120945
9.415,0.0718685112919336,-1.27673081464768,8.92228255675766
9.42,-0.132942406684363,-1.06034125273301,9.08371856988496
9.425,-0.18816172341635,-0.996824302035839,9.12798528515579
9.43,0.0255439317250978,-1.2729152864533,9.27405747913013
9.435,0.129810353454854,-1.38403067287458,9.29052869708487
9.44,0.46023221642302,-1.39511208595652,9.67594281971494
9.445,0.360453211672953,-1.28229430252345,9.67983867682679
9.45,0.17870557711353,-0.998797998624535,9.22030031065056
9.455,0.165450277587302,-0.969418365761278,9.17224831058902
9.46,0.1773463068563,-0.988562890434005,9.2125870087672
9.465,0.189242336125293,-1.00770741510673,9.25292570694537
9.47,0.415090677040556,-1.08747058803602,9.4806771900095
9.475,0.332738466332361,-0.999972425451141,9.62620302103386
9.48,0.412289290737296,-1.08944607348932,9.74138984239583
9.485,0.671902157743821,-1.26391409232217,9.70950679120091
9.49,0.771770681871674,-1.17646096120259,9.49442376967131
9.495,0.704138035220593,-1.07893928486026,9.45838807085838
9.5,0.356687929949036,-0.654115409861035,9.48535617117076
9.505,0.463293909002869,-0.577264566573069,12.3590657433286
9.51,-0.499785361867842,-0.773765861303901,15.4420118477862
9.515,-2.07779619733042,-0.57095198296242,16.4359902451157
9.52,-2.00079323917245,0.310114010652956,16.1849828584521
9.525,-1.94927563129363,0.815699385115762,15.1855567833914
9.53,-2.18804026961683,1.56704452208432,13.5909001969533
9.535,-2.91961778402887,2.64794632204188,11.70699408659
9.54,-3.19843487494951,1.84387673612039,11.6897396470911
9.545,-3.2454132411688,1.70839768299462,11.6868324172114
9.55,-3.2923916073881,1.57291862986879,11.6839251873317
9.555,-3.33936997360739,1.43743957674302,11.681017957452
9.56,-1.41062840810266,-0.179802215157083,10.9434597785227
9.565,0.0632650360023705,0.583857084134519,10.7060979962769
9.57,-0.0993146568063069,1.33546074222861,7.56109601573374
9.575,0.566268657819668,0.278944220751991,5.91629809510166
9.58,0.82053254947501,0.207317839941495,5.72227257979829
9.585,-0.186848864897153,0.565955425723379,6.07975663073105
9.59,-0.81699876459356,0.868200380078821,5.49188357668356
9.595,-0.0863152257535994,0.743189228333661,5.66506334680962
9.6,0.581478995884924,-0.127656977830259,6.61612704884743
9.605,0.299026969968567,-0.282150874887264,6.65567844237089
9.61,-0.476652942335255,0.828167274311722,7.85289842018766
9.615,-1.01108993440172,1.10928171630512,8.68034713454541
9.62,-1.01243387327145,0.486996972939097,8.13901745624479
9.625,-0.658204780569031,0.160836206529649,7.9908223489918
9.63,-0.612183726559566,0.405415331512379,8.32812000726399
9.635,-0.901723418692644,0.97390911951553,8.92639797163028
9.64,-0.985738189552823,1.33104662718249,9.13865897849466
9.645,-0.607573654411128,0.955395638694985,9.18194502482557
9.65,-0.2620790577411,0.480374951929889,9.48040981792073
9.655,-0.197944799640309,0.392182044322157,9.55457741296319
9.66,-0.133810541539494,0.303989136714394,9.62874500800567
9.665,-0.810229431731664,0.876284755112497,10.5767060914377
9.67,-0.414055884089477,0.736638171206183,10.457265796087
9.675,-0.136546758483172,0.471179721413416,10.5789060162232
9.68,-0.127552043531432,0.516932998076839,10.6318122115364
9.685,-0.241753650989982,0.719482112334513,10.6163414237768
9.69,-0.282348031319737,0.823507580871808,10.7924397342345
9.695,-0.247925722150371,0.823643742314232,10.7420611570867
9.7,-0.0522565639499457,0.770344101266233,10.3013729012746
9.705,-0.0442858765750664,0.745973309697802,10.3081224136201
9.71,-0.159786209802083,1.10465015900973,9.83366910731304
9.715,-0.196937970078107,1.17641312690277,9.69578807264048
9.72,-0.285939653701836,1.26528305388132,9.33405317240783
9.725,-0.354468378481055,1.29781883280798,9.33921021413157
9.73,-0.0902629184274774,1.14867477220659,8.89953329806437
9.735,-0.027451551629267,1.03060950163836,8.9163317744524
9.74,0.0195110363446436,0.94233486380828,8.92889160184375
9.745,0.413938057889213,0.756970328002161,9.50298945695375
9.75,0.245295266035897,1.21114950000599,8.03740635199099
9.755,0.198468834881193,1.11447423531667,8.14412091909339
9.76,0.277141821336044,1.05788074005403,8.18784067417647
9.765,0.0936859860409548,0.960276410075598,8.60772515273631
9.77,-0.23129984986997,0.970216405125435,9.24892316779871
9.775,-0.197915657585064,0.915487746262033,9.31883041002105
9.78,0.123234950031657,0.90334592662607,9.32364878415353
9.785,0.241687347373591,1.05644883783746,9.12919830458483
9.79,0.142960781796727,1.16538786074767,9.16574481662177
9.795,-0.0784892010897143,1.16221949241919,9.56697637743181
9.8,-0.110290684849428,1.08326624806874,9.91756014536108
9.805,-0.563445591116589,0.452235641813614,11.0351353058986
9.81,-1.28959217303154,0.544362313594444,11.7446950609125
9.815,-1.52547122039795,0.484778093787565,12.2039108795488
9.82,-2.05506430877676,-0.0248764247335252,13.1187912966635
9.825,-2.36035798678728,-0.488273909491765,13.8140569890665
9.83,-2.38138826333708,-0.681216704032695,14.1277180356378
9.835,-2.70523146429342,-1.52140221619975,13.9943121354204
9.84,-4.29206656607354,-1.23214064801163,15.6008413985569
9.845,-5.7361215062576,-0.652331884634292,16.8877251191821
9.85,-6.05465154242637,-0.125323309915244,16.6961852516384
9.855,-5.51476847101133,0.441763390529737,16.4603790537771
9.86,-3.52324794895244,2.28151476303082,14.2637222774706
9.865,1.19977582950165,0.523663315354694,6.9925181887544
9.87,2.21938940654666,-2.70983221036085,8.7864662057007
9.875,-0.511681158756395,-0.0770027920626338,9.3981668353317
9.88,-1.04025076372204,0.779477292483514,5.28042659849463
9.885,-0.346320511479958,-1.00487757798843,4.72647788205366
9.89,0.497445937745102,-1.51402329237097,5.1250132597055
9.895,0.352638760495311,-0.91469222982151,6.8496905054016
9.9,0.0523550121959744,0.290811454186107,6.52602743178459
9.905,-0.249008137380154,0.320607410337451,5.44824950441067
9.91,0.102242063539156,-0.882590570174836,6.13231457199027
9.915,0.194402412512572,-1.02871270896624,7.75314190819976
9.92,-0.256544041753231,-0.435705928675001,8.14095174776027
9.925,-0.419797219198112,-0.441768219985742,8.67209985800938
9.93,-0.364032627666337,-0.873276771845577,9.24734500042107
9.935,-0.071420316976875,-1.52739706840514,10.2256065948774
9.94,-0.211119009123752,-1.25619465553977,10.1940925901689
9.945,-0.595027711576876,-0.706551392935912,9.75858511897518
9.95,-0.546394404223129,-0.599622348525682,9.74286496346551
9.955,-0.399492846661466,-0.685243851371326,9.92803151991991
9.96,-0.146784572183083,-1.17511908640719,10.1007985511075
9.965,-0.144422281792332,-1.20124489557928,9.93082887720136
9.97,-0.154743170643693,-1.19994417811556,9.89548493720741
9.975,-0.331179412520843,-0.976079110778968,9.85125027833911
9.98,-0.247815728339022,-1.12876931748636,9.40897697411202
9.985,-0.154297942855193,-1.2059730957292,9.17069022675251
9.99,-0.0864792377371132,-1.12373879497689,8.97297921330436
9.995,-0.0864269060778693,-1.04271096932432,8.93578128810063
10,-0.03197070809469,-1.09590660664842,8.75297532253638
10.005,0.0231182917900534,-1.27101428014343,8.79552840161598
10.01,-0.056101307145452,-1.37937865989992,8.99141780878616
10.015,-0.166902457366144,-1.37510321686556,9.10259355118236
10.02,-0.226719063139129,-1.27804011379886,9.20733581482266
