Time,Gyro_X,Gyro_Y,Gyro_Z
0,0.000512443793316682,0.000283866655081511,0.000842482938120762
0.005,0.00345314596520396,0.000193094214536907,-0.0023171548853899
0.01,0.00102841668047459,0.00230347421030569,-0.00751459895638354
0.015,-0.00599056737821289,0.00354712558402088,-0.00807770605585841
0.02,-0.00953389620942203,0.00160949845391515,0.0021414309700487
0.025,-0.00746651802747027,-0.00133745066217343,0.00417188539909953
0.03,-0.000906142880189198,-0.00531721713715192,-0.00137212893429768
0.035,-0.00141024057094927,-0.00510653647993812,-0.000961665680018534
0.04,0.000245535804298668,-0.00120041909183199,-0.001981032236901
0.045,0.00100647115862,0.000248443606204917,-0.00299972227559217
0.05,2.94723439285174e-05,0.00187184994717701,-0.00609870069870101
0.055,0.00117046261313613,0.0036879772192581,-0.00453211236842681
0.06,-0.00453618230782026,0.00581246620922359,-0.00257639881137322
0.065,-0.00903085464800144,0.00550196386391778,-0.0011160414582005
0.07,-0.00597014103599518,0.00597390260736567,-0.00111521601318304
0.075,-0.00102504305372907,0.00349680639029205,0.00405515438311024
0.08,0.000244666070575846,-0.00564113134519292,0.0078663572426995
0.085,-0.000986763526203206,-0.00282262815270099,0.00295573467269276
0.09,-0.00283231562134902,0.00266515160550084,0.00224778211422003
0.095,-0.00266339671629202,0.00288655016828622,0.00202299135788914
0.1,0.00156281994501007,0.00526178232336966,-0.00412232695130322
0.105,0.00261276415163186,0.00518057768574517,-0.00717566093975057
0.11,-0.00248429443057697,-0.0017841283929488,-0.00629076285430724
0.115,-0.00193965685081799,-0.00401593366096039,-0.00243421644949506
0.12,0.00521389691911014,-0.00209434605946147,0.0016276114372893
0.125,0.00664048624880149,-0.000210658248867645,0.0007246134692032
0.13,0.0076841390432307,0.00380285299464367,-0.00169554491168523
0.135,0.00584619189422252,0.00275604723148236,-0.00145595474041221
0.14,0.00149517260440588,-0.000713298662297257,0.00208445240988033
0.145,0.0018326381461606,-0.00444693773788149,-0.00228969399352473
0.15,0.001944796922024,-0.00670007185908881,-0.00258040757117455
0.155,0.00154365390406441,-0.00410067799145994,-0.0031242138369234
0.16,-0.0012576835448263,-0.00167599423951719,-0.0029391598178465
0.165,-0.000312112014132516,-0.00287006655275826,-0.00152363828873374
0.17,0.00303842406500912,-0.00231718747772042,-6.98677576975179e-06
0.175,-2.76710145217657e-05,0.00149523703044494,-0.000882318362845615
0.18,-0.00562341297672667,-8.56574101878069e-05,-0.00456145361963635
0.185,-0.00951631262710465,-0.000358116726883984,-0.00289792982897627
0.19,-0.002789405885184,0.0039073312728995,-0.00478406607143834
0.195,0.00165708598284166,0.00683101397216721,-0.00106536812958277
0.2,-0.00147220182905947,0.000870280314211825,0.00486135826803595
0.205,-0.00277874257151712,-0.00518022464067595,0.00337721200414841
0.21,0.00102833877301586,0.000194399041143064,-1.18685832463125e-05
0.215,0.00661639005970048,0.00167274277199724,-0.00365439762331758
0.22,0.00604039914273245,-0.000824649990364024,-0.00524815201954036
0.225,0.000199624115716648,0.000757670346208346,-0.00419146745800366
0.23,-0.00291064590958921,0.0032600699779285,0.000676434018472354
0.235,0.000571475278186958,0.00514502342901945,0.0017474218434897
0.24,0.0035764749003629,0.00198319650237974,0.000235551508632568
0.245,0.00339812849780432,-0.00222566926884588,0.00346051879235988
0.25,-0.00240135012707763,-0.000879817609182412,0.00540622410263768
0.255,-0.00574359320000204,0.000457486762910589,0.00230690331780144
0.26,-0.00391641944559592,0.000514617662768887,-0.00152255416078841
0.265,-0.00154054189105879,-0.00209810843281161,-0.00433371592634556
0.27,0.00339686088676913,-0.000382311935301712,-0.000233897529585332
0.275,0.000529517395605931,0.00259103001701915,0.00367636237387559
0.28,0.000445792233699924,0.00155812419181251,0.00201244081076192
0.285,0.00489161260499301,-0.00201843821704815,0.00390898920316453
0.29,0.00722662686223165,-0.00511875142130257,-0.00218323688580681
0.295,0.00256344231621466,-0.00100739161375705,-0.00405703061821437
0.3,-0.00397445759866546,-0.00142113682262889,0.00442718479221994
0.305,-0.00315997522176312,-0.00132547581208616,0.00541932549044536
0.31,-0.000226276599774158,0.00506879042326155,0.00110410172876983
0.315,0.000172370045043497,0.00475705900723793,-0.00502120270608092
0.32,-0.00263287580872239,0.000732962513656818,-0.000328887419732532
0.325,-0.00390865518409755,0.00217587713232006,0.00222962125663482
0.33,-0.000821961007429296,-0.000722672898128858,-0.00238719900074102
0.335,0.002196428328048,-0.00443679865450905,-6.25893886021838e-05
0.34,-0.00284747561593497,-0.0022494203723052,-0.00170987919868895
0.345,-0.00926705232488513,-0.00567661189774991,-0.00598172151719906
0.35,-0.00211776634482155,-0.00509560231773153,-0.00464755508289842
0.355,0.00716427088532172,-0.00022493697923785,-0.00282367960259951
0.36,0.00432671627521876,0.00066278385193887,-0.00508717694728764
0.365,0.0019988864669055,0.00433163282156173,-0.0062037038682989
0.37,0.00219972689461095,0.00298342942296249,-0.00103119635911697
0.375,0.00205357148952865,-0.00109454335889237,0.00374804300546937
0.38,0.00129243650269983,0.000715138270662976,0.00129216042398777
0.385,-0.000401874153500988,0.00177426737332652,0.00499844337376895
0.39,-0.00342959394936403,0.00051172220584023,0.0100295050172848
0.395,-0.00449052251294724,0.00276721911816015,0.0035768307348856
0.4,0.00084706060109091,0.00406303985206639,-0.000662399001758802
0.405,0.00336218398878428,0.00376409763605139,0.00190031724638333
0.41,-0.00553614670926377,0.00329374415041692,0.0046584227264022
0.415,-0.0076965083251731,-0.00159225850739556,-0.000684113384827171
0.42,-0.00194953939719913,-0.00484316451843255,-0.00339223212005355
0.425,-0.00143585876548428,-0.000713488875748936,-0.000969930702171846
0.43,-0.00396549174618596,0.000895789295128505,0.000660160889146667
0.435,-0.00585616978966384,0.00105998872510996,0.00222512690589165
0.44,-0.000383831129289699,0.00506569036379791,-0.000561960597876272
0.445,0.0011073546630122,0.00494667515350678,-0.000157609086566203
0.45,-0.00116052278582007,0.00110700091993779,0.00143155683671746
0.455,-0.00159882468659473,-0.00468865234353659,-0.00047062411957972
0.46,-0.00371460060660864,-0.00538759687635733,0.000370321930604153
0.465,-0.000832247192218868,0.000215602317807889,0.000952469639901159
0.47,0.00202726232962657,0.00534393948732895,0.00312775206078709
0.475,0.000692202813976122,0.00450324452768057,0.000305996745215507
0.48,-0.00108934460519509,0.00263965803677321,-0.00272320431551474
0.485,-0.00387881589910098,0.00113344951160253,-0.00130279260047571
0.49,-0.00157698965542169,-0.00372769359158407,0.00242544680085726
0.495,0.00385255368081986,-0.00654459676638485,0.000945609714800211
0.5,0.0014487086952113,-0.00240445821471153,0.003802774544013
0.505,-0.0021236984844492,-0.00215963990504412,0.00451057849480084
0.51,-0.0027640767409172,-0.00230821950780228,0.00245928532639148
0.515,0.00146494944299976,0.00119011826627439,0.00251466465341459
0.52,0.00369358550943395,-0.000823362039410169,-0.00250753336198919
0.525,0.00329503743898488,0.000676325856290203,0.000794123269711814
0.53,-0.00364254849673993,0.00457569961953504,0.00289797190557236
0.535,-0.00480217583981966,0.00427196462188713,-0.00176414212524584
0.54,0.000670990634281814,0.00245185311659612,-0.00552441527490356
0.545,-0.0033160711970513,-0.000832708120825391,-0.00490708540288046
0.55,-0.0046434831057083,0.00332579697243814,-0.000743612887619944
0.555,-0.00417854866018347,0.00625255681072181,0.000885210549964503
0.56,-0.0070721178702161,0.00512315058523759,0.00618701475825945
0.565,-0.000268657067525111,0.00443888254185414,0.00345200673274424
0.57,0.00385049759358057,0.00416878910874243,0.0012766042777846
0.575,0.00423230077807486,-0.000324207328009423,0.00103035311594708
0.58,0.00401204447606229,-0.00941676418717017,-0.00306425744357324
0.585,0.00010062577135888,-0.00908488731392934,0.00252357735542144
0.59,0.00298379361600994,-0.00236477333363651,0.00417140211476228
0.595,0.00265605755483954,-0.000212510605726077,0.000205538574123209
0.6,-0.00200539110332522,0.00258028616697952,-0.000102936652330773
0.605,-0.00241383658590272,0.00427483766936806,0.00313092310781449
0.61,0.00425312619474141,0.00382481312896405,0.00512057709611322
0.615,0.00542596861355738,-0.00244279019962465,0.0030732779425436
0.62,-0.000456732972565227,-0.00326513251801617,-0.00277861542463221
0.625,0.00035617983363139,-0.00214230905591704,-0.00173634583802952
0.63,0.00425677552277527,-0.00434224123154428,0.00337546954765724
0.635,0.00576580226350369,-0.00209694152885397,0.00218040860383311
0.64,0.0061859785207607,0.00132919728309672,0.000292012013719029
0.645,0.00470124397568626,0.00200698599046707,-0.000196391034713811
0.65,0.0011148639845297,-0.00235141176595447,-0.000417273788885313
0.655,0.000823331263270156,-0.00365203640524791,-0.00153703704852453
0.66,0.00297670955540476,-0.00339566376431622,-0.00453156080152901
0.665,0.00113292476935347,0.000457495033334718,-0.00470567905859986
0.67,-0.00384162371715354,0.00494032320395791,-0.00700700680908681
0.675,-0.00447191132871066,0.00442752224978793,-0.00492985769047962
0.68,0.0018783834415404,0.00302616048579507,-0.00054428771916392
0.685,0.00126998500641727,0.00107775764106439,-0.000365798822105165
0.69,-0.006258674406514,0.0013548009589967,0.00252563139945521
0.695,-0.00693819719056384,-0.0018296512820633,-0.00217565957733088
0.7,-0.000953659790696543,-0.00272272711925435,-0.00357752851148088
0.705,0.00417596227148771,-4.75221460146498e-05,0.000741011179451602
0.71,0.00232724549668615,0.000688922472050679,0.00316094787824949
0.715,-0.0019024315814322,-0.00221179661388205,0.000396809351567185
0.72,-0.0032378619876101,-0.00416986181119218,-0.00523128460584017
0.725,-0.0015384007502179,-0.00369923438817168,-0.00667234547525098
0.73,0.000580914976278614,-0.00300839561246438,0.000557692038858717
0.735,-0.000380953492635811,-0.00143109720214384,0.00496865013075823
0.74,-0.00192307175914184,-0.00180160559645038,0.000184218928631807
0.745,0.00092180174553544,-0.00717663890394274,-0.00134872834488154
0.75,0.00435689482880394,-0.010654959654841,-0.00143691065488654
0.755,0.00307296791848861,-0.0064951231868088,-0.00189088655472475
0.76,-0.0037753975000931,0.000457662401425982,-0.00504035547197029
0.765,-0.00219163504598182,0.00481151499050706,-0.00141604264932494
0.77,0.0046186628198181,0.00187149752868681,0.00673415755176093
0.775,0.0090379588100426,0.000213063601939342,0.00889127445672915
0.78,0.00766497755883362,0.0012392501239806,0.00425245414328834
0.785,0.00315243574246882,-0.000179930766692452,0.00199304011920691
0.79,-0.00174462549729819,-0.000419319244064334,0.0036383305597202
0.795,-0.00259058269730348,0.000927416620999406,0.00367639155397809
0.8,0.00179201758116671,0.00146819523081969,0.00206034190634822
0.805,0.00214771525713275,0.00115142601819145,0.00243656702400758
0.81,-0.00315238276230424,-0.00318646883986925,0.00151840084453859
0.815,-0.00211527904797414,-0.00380916168945812,-0.0042676945675817
0.82,0.00460630144921898,-0.00254655084780041,-0.00568736159953836
0.825,0.00552790103345842,-0.00323625145936287,0.000220985825996141
0.83,0.000364321309755742,0.00120362853048427,0.0027991056662819
0.835,-0.00427378967936642,0.00416913353912702,0.00238535150925245
0.84,0.000375697286370814,0.00243254215442394,0.00183603687139365
0.845,0.00536456041182656,-0.00109612833873101,0.00313598711333801
0.85,0.0066457958415133,-0.00325865941679625,-0.000981350536368606
0.855,-0.00148717906677116,0.000630282302747128,-0.00230228158003074
0.86,-0.00799086637088977,0.0018665483504415,-0.00180676011272502
0.865,-0.00401833666309995,-0.00551534350221154,-0.000177198888743197
0.87,-0.000847723522092892,-0.00549727225331087,0.000959078232497737
0.875,-0.00218762909605722,-0.00011212513515409,-0.00362852140393645
0.88,-0.00115386230075411,0.000488619192739203,-0.00488511159345629
0.885,0.00303232875683643,-0.00353124381138498,-0.000835782157666729
0.89,0.00598008314094083,-0.00858006854188925,0.000119932013449182
0.895,0.00519294711487873,-0.00626749094470788,0.00175151169822029
0.9,0.00233629444070841,0.00271831765648101,0.00288505587778403
0.905,-0.00217927391699791,0.00806595557356157,0.00146191102352882
0.91,-0.00594989124710057,0.00299357411413896,0.00317137345517041
0.915,-0.000635848329194704,-0.00069844080622197,0.00315060597772089
0.92,-0.000399686690118636,-0.00187199775493906,0.00669353447703801
0.925,-0.00250473018849263,-0.0015857523245709,0.00519323302148025
0.93,0.000666655717366604,0.00105166445878387,0.000222903085329045
0.935,0.00328569050714056,0.000720796693129593,-0.00187968971288109
0.94,0.00309325078307069,0.000265284635061998,2.38701761929114e-05
0.945,0.000689451478283052,-0.00166270337394167,-0.00180760456177468
0.95,0.00306640457338696,-0.00198870650384107,-0.00485520030432149
0.955,0.00184376590723257,0.00085267645071085,0.000641012010579565
0.96,-0.000480760137914565,0.000104797948435616,0.00430905284471382
0.965,0.00164159866843574,-0.00169946508481228,0.00503112964361695
0.97,0.000973245671646329,-0.00015053086990861,0.00699098572346069
0.975,0.000372698892365559,-0.00110228633152548,0.000616608131204636
0.98,0.000459739287541048,0.000545455455287786,-0.00523166477779531
0.985,-0.00216743556361229,0.000604805763398518,-0.00480650967081482
0.99,-0.00153985814143497,-0.00229224303197412,0.000917418078945204
0.995,-0.00177061706971654,0.00193523440491912,0.00512595306307358
1,0.00110963626471199,0.00718865367188208,0.00795255680186334
1.005,0.00450938111770368,0.0069177420089209,0.00464684470158402
1.01,0.00404875112008723,0.00378856076070439,-0.00330124781737926
1.015,0.00396046396117533,0.0012494560652516,-0.00138695891218561
1.02,-0.00268161095372337,0.00141045139639246,-0.000384475402788674
1.025,-0.000369961578184753,0.00242536299045388,-0.000782959719821708
1.03,0.00443086622211992,-0.000867742018443536,-0.00235775690110665
1.035,0.00195676033460425,-0.00316777431498533,-0.00432823763022854
1.04,-0.00176843231940582,-0.000137713162900572,-0.00117249296698332
1.045,-0.00385527486079685,0.00217772296456585,0.00256503179939935
1.05,0.00180282773183369,0.001506586447169,0.00215814101132562
1.055,0.00653135341365237,-0.000111488474728795,-0.00247799095506345
1.06,0.006379699149977,-0.00145982600327525,0.00034736770500054
1.065,0.00338586957868494,-0.000188905976951636,0.00596953544740269
1.07,-0.00109183892196865,-0.00220011342115724,0.00422045739566256
1.075,-0.00208033896707315,-0.00626349422030831,-0.00431401453787103
1.08,-0.00292176764336066,-0.00469161924885006,-0.00564563813097742
1.085,-0.00432714790063225,0.000554598717317376,-0.00372291887058739
1.09,-0.00647086750397282,0.00385920400469854,-0.00292702988311152
1.095,-0.00472518122709965,0.00333417540722135,-0.00042361786569522
1.1,0.00332056753014033,0.00147498254072263,-0.00120921644217243
1.105,0.00934993174945662,-0.000158653526459572,-0.00368898123912395
1.11,0.00194772423855361,0.0010452603207254,-0.00648587874019058
1.115,-0.00201828624860701,0.00183258234218002,-0.00213045342778614
1.12,-0.0007165172331361,-0.000703918174038017,0.00784783954391723
1.125,0.000573270503014871,-0.00163822713955065,0.00519004030417666
1.13,-0.000978597061446736,0.000643392064470655,-0.00344886630091341
1.135,-0.00814809500789166,0.000719254141211084,-0.00339722101029615
1.14,-0.0060483745032238,0.000105885706522245,0.00141543817840866
1.145,0.000855372970369274,-0.000348693628926199,0.00193404495332935
1.15,0.000845166820748744,-0.00125448534922679,-0.00203231452164809
1.155,0.00132006211742692,-0.000708392245936046,-0.00181360760730485
1.16,-0.00126281918165154,-0.000413959808957844,-0.000908469188212692
1.165,-0.00295352311846335,-0.0025687928776288,-0.000245001386348762
1.17,0.00368924746248874,-0.0023897708909956,0.00264981269297008
1.175,0.00424482246696486,-0.00245929670114781,9.32431547057757e-05
1.18,0.000240401689816388,-0.00103119134233768,-0.00266282027037649
1.185,-0.00631976886365792,0.00388591519291159,0.002632185294627
1.19,-0.00595809819221528,0.00521355799088057,0.00321626848053358
1.195,0.00327879288504671,0.00208263749617518,-0.00421500648779087
1.2,0.00352952622713796,-0.00011456574347787,-0.00363500862911109
1.205,-0.00279284262173375,0.00109477953727274,-0.00159325710304847
1.21,-0.0028425395654717,0.00325651892312994,-0.00455524576274068
1.215,0.00311848234836898,-0.00179436731272381,-0.00310838301758374
1.22,0.00406402114472833,-0.00504910081181663,0.000790926155329503
1.225,-0.000573505515755079,-0.00332660224017765,-0.00198894237171425
1.23,-0.00475797088003486,0.00357988325229111,-0.00258255180886498
1.235,-0.00332838465356286,0.00643921107317381,-0.000159764963500439
1.24,-0.0018781546404045,-0.00128058883523483,-0.0014622886739454
1.245,-0.00432461440371408,-0.00206940257602499,7.06758071847038e-05
1.25,-0.00416129813657363,0.000229222581113458,0.0029399153850225
1.255,-0.00275354564803341,-6.84132191737103e-05,0.00183004330447863
1.26,0.000586007207756541,0.000606643347344013,-0.000888540467810088
1.265,0.00289190632941153,-0.00388795528326664,-0.0015680427699659
1.27,0.00069745647292343,-0.0049222783917256,0.0032315470243813
1.275,0.0023520260514227,0.00023895788092235,0.00255738847389202
1.28,0.00142023530455298,0.00307748457484333,0.00317469378204325
1.285,-0.00227885244010065,0.00408101398465598,0.00311273847610934
1.29,-0.00481955595470866,3.40552729850759e-05,0.00184432984748754
1.295,-0.00323574649117853,0.000587820248850189,0.00175334376405634
1.3,0.00226466462999259,0.00356085646787164,-0.000477574712391078
1.305,0.00189442897329701,0.000622266551457672,0.00157364235961704
1.31,0.0016274921871355,-7.05671554697778e-05,0.00016478059917843
1.315,0.00457410173999252,0.00237899463108835,-0.00228020324348459
1.32,-0.00125683869034971,0.000116458486547579,-9.83565342936871e-05
1.325,-0.00583270484396986,0.0017954408913487,0.00424614795892839
1.33,-0.00140190295264466,0.00476474587969704,0.00584825309353971
1.335,0.00225767520006612,0.00165438111309186,0.000653894119137041
1.34,0.00164294436186424,0.000913795809291112,-0.00547427894127311
1.345,-0.00388760513321495,-0.00129282188787762,-0.00398339747490356
1.35,-0.00695388274867005,-0.00152678684457745,0.00196828008084999
1.355,-0.00306125563753392,0.00166053946012019,0.00261362750312177
1.36,0.00378194656722444,0.00223943307067252,0.000125676121679102
1.365,0.00355870494250726,-6.3566364273679e-05,0.00127899814780534
1.37,-0.00182984736944435,-0.00248030352147006,0.0037787303466888
1.375,-0.00238559876133436,-0.00607486225643369,0.00518435629610504
1.38,-0.00266390929674374,-0.00318358762788371,0.00369117808040128
1.385,-0.00189985789164487,0.00232205542020727,0.005870540201574
1.39,0.00080612638417063,0.00430699432025485,0.00854473695066453
1.395,0.00270273125652706,0.00148863185573599,0.00683512714150787
1.4,0.00355011765652536,-0.000428012166020242,0.00648855357640405
1.405,0.0032018573061549,0.00210006414485386,0.000603663396929691
1.41,-0.00106133883235751,0.00342509227939228,0.00339503655884512
1.415,-0.00812970749798156,-0.0004782936638785,0.00533640989226795
1.42,-0.00447144572861984,-0.000772352760321156,-0.00361257858537228
1.425,0.0039784161814811,-0.000973749083382089,-0.00385757379518695
1.43,0.00375457098439472,0.00272143209842569,-0.00295103619309667
1.435,6.93565075863116e-05,0.0046089888927896,-0.0032854888243084
1.44,-0.000446839058773075,0.00220176819450355,0.00238491829490552
1.445,0.00112228807588511,0.000406273064982106,0.00672688423214251
1.45,0.00424537633633318,-0.0037000651945621,0.00559162449247387
1.455,0.00503208011363951,-0.00218072266896053,0.00364352776505594
1.46,0.00372720412941322,0.00030148536982357,0.00759645699352701
1.465,0.00427315200336665,-0.000109710785451589,0.0104943444526981
1.47,0.00255591043876751,-0.000370636580002369,0.00554028693824555
1.475,0.00116930854751303,-0.00171131233990469,0.00241720373215119
1.48,0.0014073961691425,-0.00180498577435361,-0.000385342541812644
1.485,-1.04238299173924e-05,0.00374048753111304,-0.00326943410824952
1.49,0.00067005130643906,0.00328509755389019,-0.00442768059007347
1.495,0.00220071949791906,-0.000773323706871867,-0.00348651601152659
1.5,0.00128270753997473,-0.00351476144320761,-0.000856901034214846
1.505,0.00218399250469785,-0.000769439615628586,-0.00128556326579083
1.51,0.00106883793955227,0.002079618782827,-0.000522177688863559
1.515,0.00169890284598406,0.00325230276891224,-0.00284059973781658
1.52,0.00288470622235578,0.00157784595199152,-0.00508065442645071
1.525,-0.00284211418464432,-0.00334247621541814,0.00014842902505745
1.53,-0.00818477611362907,-0.00288036247179455,1.01448182155348e-05
1.535,-0.0082735506342814,-0.00183987245066575,-0.00786594622813533
1.54,-0.00439450454433093,-0.00318293181847862,-0.00774525475383437
1.545,0.000794528863007122,-0.00285277577009131,-0.00137206573275055
1.55,0.00128005320765872,0.00361766702113129,0.00259620483348195
1.555,0.000516161788868293,0.0029929237867295,0.00160807763226622
1.56,-0.00144744841121311,0.000992317922493922,-0.00067960189161108
1.565,-0.0012707473199397,0.00596353162687263,-0.00178241861876034
1.57,0.00149609751242138,0.00128820896580144,-0.00128719537292732
1.575,-0.00528115370978518,-0.00562560017676471,-0.00247614986502474
1.58,-0.0047550749723819,-0.00340739144310936,-0.00568264969136965
1.585,-0.000559659079693631,-0.00192309076419875,-0.00132877514283715
1.59,0.00360138543439868,-0.00527910893571431,-0.00044330636646896
1.595,0.00779398899766262,-0.00582261438456386,-0.00495251804056897
1.6,0.00325199528545563,-0.00633981109638693,0.000998119583686354
1.605,0.0033358718012968,-0.00136920507077628,0.0036125782798881
1.61,0.00414960949123715,0.00972202195245772,0.000296523608852882
1.615,0.00378480681798877,0.00816426785462518,0.000245866309431088
1.62,0.00540649730135891,0.000429372045449926,0.000544007193744663
1.625,-0.00260185628265344,-0.00511209310868298,0.00512189760007029
1.63,-0.00764936287991367,-0.00585343355207969,0.00255414115695791
1.635,-0.00564774863190317,-0.00199666844599456,0.001757867927059
1.64,-0.00659692576275776,-0.00227321190762724,0.00484838592159027
1.645,-0.00777646890867541,-0.00493793569466565,0.00708438404892782
1.65,-0.00488215860792694,-0.00205304351285927,-0.00189190579688955
1.655,0.00164262527775656,0.00223864896311689,-0.0044024173423367
1.66,0.00412722238681732,0.00234179314044115,0.00339179787225228
1.665,-0.000706253189736324,0.0021823212598314,0.00138927659731367
1.67,-0.00427885808117533,0.000711750967421259,-0.000424645991720185
1.675,-0.00405696597760652,0.00337278762109513,-0.00264360417071982
1.68,-0.00201463923319109,0.00366631755306374,0.000316672956554633
1.685,0.00432694921579798,-0.00234608088147735,0.00320709266811953
1.69,0.0060510897913075,-0.00506466310826705,0.00141107173539595
1.695,0.00349985468299753,-0.002613853290868,0.0010550403635337
1.7,0.000420825401885462,-0.000931081571208634,-4.79067935584896e-05
1.705,0.00231841560497283,-0.00291828024572071,-0.0022785842682673
1.71,0.00364165441167804,-0.00379167303950792,-0.00388985818244456
1.715,0.00319484807698615,-0.00142604558082671,-0.00391203812874631
1.72,0.0195506469972209,0.00269128852483391,0.000874784499457379
1.725,0.0431536092667348,0.0164137020508602,0.00311458383343706
1.73,0.0461921255690333,0.03206050226639,0.0019518753541264
1.735,0.0157977004950207,0.0478666792208114,0.00833213147239454
1.74,-0.0115262037904527,0.0770707400887648,0.0169727220949503
1.745,-0.00372203356698704,0.109995231422754,0.0119695280753727
1.75,-0.000397199507005207,0.133909981677341,0.0130682289468069
1.755,-0.0088566366766116,0.195284069344245,0.0102430662762686
1.76,0.0127247741105075,0.275987322204148,0.0042068706054992
1.765,0.0432740069066012,0.369310707402055,-0.00705668501981652
1.77,0.0666186324101848,0.434432970171913,-0.00658286879531674
1.775,0.0702563102605349,0.449248488158586,-0.0087351498627879
1.78,0.0738939881108849,0.464064006145259,-0.010887430930259
1.785,0.15286299283936,0.671556762968542,-0.0364725592021838
1.79,0.107755757201767,0.679232113000287,-0.0512916943172394
1.795,0.0637032851192977,0.670878663528982,-0.0447121931121682
1.8,0.00603264783629144,0.664668755489842,-0.0228978473246592
1.805,0.012906860673388,0.660215999954483,-0.0222116529377795
1.81,0.0197810735104848,0.655763244419124,-0.0215254585508998
1.815,0.0974373844739575,0.595252626887427,0.00419231316248311
1.82,0.127367177561047,0.554877966241122,0.00993566344682472
1.825,0.121098657198799,0.547606510110208,0.0109767053764025
1.83,0.11483013683655,0.540335053979294,0.0120177473059802
1.835,0.178703732610004,0.427856488853078,-3.43306919568256e-06
1.84,0.160283503404608,0.410766443486501,0.00826122417503499
1.845,0.156010893802671,0.404505914422804,0.0146654005981592
1.85,0.159079402700935,0.334512447556418,0.0074098532540756
1.855,0.148353168431591,0.327402810766914,0.0104214147900286
1.86,0.129577355862048,0.280456237904766,-0.00573699792945296
1.865,0.125390803563244,0.246046622731105,0.000296838572045361
1.87,0.121162762911904,0.217038590301078,-0.00951945091590496
1.875,0.0963832929530956,0.194908437675015,0.00272811368045547
1.88,0.0572411077096097,0.163299788040162,0.00983041756039081
1.885,0.0259015782424883,0.142322446607691,0.00466833519353097
1.89,0.021832143921374,0.125100497958552,0.025449614692257
1.895,0.00581794981063147,0.120586779372526,0.0271386871170015
1.9,-0.0392047060005222,0.102885364372407,0.0522166293300653
1.905,-0.0442784091641317,0.101998421538345,0.0535292696610385
1.91,-0.0493521123277414,0.101111478704283,0.0548419099920117
1.915,-0.0524281614219304,0.058233338742619,0.0684291665237986
1.92,-0.0446801037565401,0.0523068185945205,0.0647076999718298
1.925,-0.0446513093635715,0.0516125148733715,0.0632963508096689
1.93,-0.0446225149706029,0.0509182111522225,0.061885001647508
1.935,-0.0445937205776343,0.0502239074310734,0.0604736524853471
1.94,-0.0901430732231563,0.00915520550552718,0.0660822675361076
1.945,-0.0982694341030219,0.00962057598815996,0.0682493183102569
1.95,-0.0908249737140592,0.0102316762520306,0.0677346810024742
1.955,-0.0808542836888039,0.0146057732569607,0.0537882202236275
1.96,-0.0716198992400591,0.0110290320107633,0.042771252344908
1.965,-0.0532323094383742,0.00369794013795213,0.0516588965750182
1.97,-0.0531412703942143,-0.000779801418548809,0.0547030268593921
1.975,-0.0590515862357651,-0.00552786705121853,0.0544358696664914
1.98,-0.0597909743884643,-0.00716387942640785,0.0545486013378568
1.985,-0.0566554600254927,-0.00668915511294452,0.0533940148394137
1.99,-0.0535187668635977,-0.0062157385951906,0.0522297964024917
1.995,-0.0503820737017026,-0.00574232207743666,0.0510655779655696
2,-0.0155801768745161,-0.0229886437996205,0.0587647602335147
2.005,-0.0152691130548929,-0.0308699497964923,0.0494397039120056
2.01,-0.0136100795746505,-0.0367859904404203,0.0432861729464115
2.015,-0.0156938725961876,-0.0377754903632699,0.0403102372939622
2.02,-0.0503793011946572,-0.0475706513367389,0.04897330640724
2.025,-0.0611084164466974,-0.0419206651089396,0.0389807121843699
2.03,-0.0569335029843549,-0.0433277613989404,0.039581761706858
2.035,-0.0518519109728026,-0.0466594862172416,0.0385475421715749
2.04,-0.0507200819985767,-0.0509624147950175,0.0368386792807102
2.045,-0.0496965311261628,-0.0512734383860208,0.042802913304311
2.05,-0.0456834496531916,-0.0497765362092177,0.0499966205903613
2.055,-0.0437582168180399,-0.0508516412264794,0.0473648683784457
2.06,-0.0502754964420059,-0.0509610557648979,0.047757153833031
2.065,-0.0512305220377865,-0.0500121524931948,0.0476497842600152
2.07,-0.0521855476335671,-0.0490632492214917,0.0475424146869993
2.075,-0.050311740373601,-0.0580919086659939,0.0457010342582557
2.08,-0.0485068216532493,-0.0575975067656121,0.0424423644893677
2.085,-0.0195873035148282,-0.0457795906600357,0.0502363883882174
2.09,-0.0190767234504997,-0.0509357533319268,0.0536996950923833
2.095,-0.0125597447297509,-0.0544725912256625,0.060886513615322
2.1,-0.010292590453567,-0.0544435892720176,0.0539157380145786
2.105,-0.00931086870632114,-0.0485763525586121,0.0586005457683844
2.11,-0.0145980172263776,-0.0418651892268924,0.0548774543508802
2.115,-0.0192815324374904,-0.0415189123524641,0.0589412398953369
2.12,-0.0239650476486029,-0.0411726354780359,0.0630050254397933
2.125,-0.0646951341958,-0.0373850545469041,0.0456754474125114
2.13,-0.0707466387586765,-0.0392687120311524,0.0456683517352816
2.135,-0.0572520804940936,-0.0458011967201249,0.056432539406738
2.14,-0.0497587088712197,-0.0315752100835598,0.0618429889520709
2.145,-0.0465416334849561,-0.0268680024774979,0.0586244245179264
2.15,-0.0278711445513679,-0.0256337042803887,0.0479574346760999
2.155,-0.0320743511522619,-0.0269826876525029,0.0424588945094629
2.16,-0.027811234949042,-0.0346483852879669,0.0487869873063544
2.165,-0.0243305692383262,-0.0366884129900418,0.0469780709091898
2.17,-0.0251079046921076,-0.0397435591325708,0.0425245525570528
2.175,-0.0163712074610604,-0.0436895649088979,0.0485510093629639
2.18,-0.0195814174017426,-0.0488977747299221,0.0392786243402885
2.185,-0.0235753015339328,-0.0491431743091124,0.039159945692715
2.19,-0.0365096246474056,-0.0568015983470995,0.0382733291091761
2.195,-0.0428392829362664,-0.0596961913716509,0.0395550959520437
2.2,-0.0531604703594676,-0.0632650753295377,0.0317771908682796
2.205,-0.0574985745404428,-0.0632078605716393,0.0293928091611196
2.21,-0.0529017108560024,-0.0670432890792838,0.0335429188319523
2.215,-0.0479321212680204,-0.0682726233818059,0.0355210534463616
2.22,-0.042962531680038,-0.0695019576843282,0.0374991880607711
2.225,-0.0193898536324795,-0.0856971460485352,0.0436917843872828
2.23,-0.0111934680675184,-0.079039364107123,0.0413454151343317
2.235,-0.0128454744024733,-0.0709866439650098,0.0299980169620517
2.24,-0.0213134818406076,-0.0706570304330997,0.0288105267619667
2.245,-0.012225100319435,-0.0705006268257835,0.0320516018990063
2.25,-0.00757207810049091,-0.0725684014347227,0.030425561407065
2.255,-0.00814673181068512,-0.0711976373495136,0.0306731764557578
2.26,-0.0124432294436882,-0.0656690891764538,0.0337915426044603
2.265,-0.0174448724982172,-0.0569558748732526,0.02967060484674
2.27,-0.0153665590688521,-0.0524112396637833,0.0276653548017437
2.275,-0.0133769811676985,-0.0545710701879673,0.0361765833636052
2.28,-0.0149430530784659,-0.0566268938225661,0.0410237642068813
2.285,-0.0167434441287053,-0.0572423263483544,0.0429143049223794
2.29,-0.0171293334259745,-0.0534779206719011,0.0401626441194501
2.295,-0.0245024462380366,-0.0486476250597589,0.0345147825558191
2.3,-0.032081471839631,-0.0509243613248344,0.0307650580644749
2.305,-0.0303467970877526,-0.054125036923468,0.0254197224909078
2.31,-0.0260439752356612,-0.0542115535369401,0.0291325236087295
2.315,-0.0183862241117139,-0.0467210003350153,0.0331298812979557
2.32,-0.00871536328083104,-0.0334872215812392,0.0380518559713665
2.325,-0.0039705727784892,-0.0265556519487448,0.0420240192541044
2.33,0.00265859585621087,-0.0205764135065359,0.0330763888099003
2.335,0.000711637400259922,-0.0210263129828229,0.0275304228853628
2.34,0.000455959886628071,-0.0224889563238672,0.0264098338238955
2.345,-0.0115523602509119,-0.0200081796757425,0.0280338263624581
2.35,0.00526240409107633,-0.015363342771521,0.0196063372277303
2.355,0.0013061478682826,-0.0158593502947346,0.0174592287772294
2.36,0.00936814863939457,-0.0119346860255903,0.0226228100021282
2.365,0.0101074535831851,-0.0106202844180718,0.0224760230790087
2.37,0.0108467585269755,-0.00930588281055351,0.0223292361558892
2.375,0.0136918398928153,0.00367931976505142,0.00560336098835621
2.38,0.0160105290557218,0.00189757006226888,0.0123706696596652
2.385,0.0130801649076519,0.00112584758760803,0.0159501086386378
2.39,0.0117481076275957,0.00483960621695398,0.0126935065221887
2.395,0.00388498111417244,0.0130096478116122,0.0117514364314855
2.4,0.00357057231813504,0.0190645955616008,0.0101205688304229
2.405,0.00277646034497178,0.0202410725831405,0.00527725287015694
2.41,-0.00517894994646804,0.0227629837080221,0.0062494268244106
2.415,-0.00845861365655342,0.0229627993635484,0.0120956497536297
2.42,-0.00864469374060256,0.0149265864330849,0.00514117246123996
2.425,-0.00481027722633213,0.0112314460073485,0.00471798820862244
2.43,0.00890949446843662,0.0173147426970945,0.0087249987895683
2.435,0.0110283453098365,0.0171391192122067,0.0120905224226092
2.44,0.0111615584102849,0.00856269721205545,0.0109767798398583
2.445,0.00700481799711706,0.00618724517177517,0.0108786178237789
2.45,0.0125307440542547,0.00714002195643141,0.0101578613091618
2.455,0.01307086298709,0.0133762880187566,0.0103471412872516
2.46,0.0111674094706212,0.020988091462769,0.00996977161253878
2.465,0.0148586585420495,0.0268254972815377,0.00193669768262978
2.47,0.0154244358958083,0.0231556857644081,0.00154411886746514
2.475,0.018412696323467,0.0153786149241616,0.0017061412341972
2.48,0.0265622830157082,0.020701601900711,-0.00494032621045128
2.485,0.0248011839822,0.0247065511805897,-0.00658548548249803
2.49,0.0257305286430838,0.026735961287197,-0.00668108649189807
2.495,0.0111768949048565,0.0222925805936256,-0.00370000651676359
2.5,0.00742952263790054,0.0197894221315723,-0.00427829573097532
2.505,0.00049275347452022,0.0193452787893205,0.00509984078442275
2.51,-0.00465800216445321,0.0206296841043531,0.00496846017462646
2.515,-0.00200002829677203,0.0153403846734367,-0.000636691067126704
2.52,0.0135709342672859,0.00356943327900327,0.00707015388586453
2.525,0.0167758575430514,0.00449643909786691,0.0081249529617267
2.53,0.0162857033828682,0.0057596214231879,0.00798631603381379
2.535,-0.00910055480590126,0.001757745315314,0.00918173623570384
2.54,-0.0139388726268609,0.00606787829361511,0.00512168338852917
2.545,-0.0102565251974828,0.00633368750608268,-0.00117177695247606
2.55,-0.00287875041946853,0.00479093376600323,0.00027674287962766
2.555,0.00130344534599214,0.00576612902143459,0.00940868547422856
2.56,0.000738316821405908,0.0118207284696589,-0.000324521543829191
2.565,0.00333664540694723,0.012966792813382,-0.00394034371098781
2.57,0.00324144176247344,0.00898062679245242,-0.00321281182684389
2.575,0.00320105199935879,0.012926098526514,-0.00375813624055179
2.58,0.00696535542391688,0.0164174735369657,0.00334896026837939
2.585,0.00651192630917992,0.0131831299906305,-0.000171767865881877
2.59,0.0105610017454987,0.00517252401342223,0.00157969885191631
2.595,0.0102053879753036,0.00195972845207826,0.00196054756478526
2.6,-0.00116679298217356,0.00148700356661464,-0.00615540364670347
2.605,-0.00292647701035183,0.00534684199172168,-0.0052384708756929
2.61,0.000624711656137457,0.00507463419305596,-0.00423364101369292
2.615,0.00370892541140487,0.00685953737259725,-0.00937212501971153
2.62,0.00212415158898788,0.00861847910058281,-0.0119538029321286
2.625,-0.000654965642986455,0.00788709133395415,-0.00356433870291094
2.63,-0.00533491155165629,-0.000377043043836949,-0.00142033265661373
2.635,-0.0068628926454389,0.0013794972408576,-0.00317368548128104
2.64,-0.011090552132947,0.00530447848265442,-0.00463931678378085
2.645,-0.00450599086410291,0.0171047356611656,-0.00122658668906257
2.65,0.00705878753220691,0.0173298818395668,-0.00092637080679536
2.655,0.00664090074726608,0.0175317153427477,0.00122791766172438
2.66,0.00639952281281609,0.0130501148212049,0.011719601437555
2.665,-0.00271707314432622,0.00142565654753109,0.0042032442136087
2.67,-0.00734561248366572,-0.00469923091172458,0.00444605871623558
2.675,-0.00900809484975688,-0.00354984620354269,0.00131907993318289
2.68,-0.0135604303160252,-0.00709351630614057,0.00253585593670547
2.685,-0.0047991252729391,-0.00837499606030967,0.00820763997453107
2.69,0.00101294790246893,-0.00527371685128562,-0.000435284645974761
2.695,-0.00321592790281833,-0.00430631029107609,-0.00497674116611053
2.7,-0.00443222517377223,-0.00143924457576126,0.00447240175292359
2.705,0.000624266565429985,-0.000196496125956633,0.00777856698366755
2.71,0.00786010352514685,-0.00131574851138634,0.00413780378769373
2.715,0.0116949576134652,0.00215518872058068,-0.00226521950712806
2.72,-0.00277967271784509,-0.00146040589217721,-0.00461049231851847
2.725,-0.00486734391204489,-0.000904314520205827,-0.00432298638587395
2.73,-0.00695501510624468,-0.000348223148234445,-0.00403548045322943
2.735,0.0187751711321863,0.0012131287087717,-0.00351735659892769
2.74,0.00352776326015319,0.00237315121158773,-0.0164751548213186
2.745,-0.00458965444156436,-0.00139240739382893,-0.00911800159505021
2.75,-0.00419697315271524,0.0012232866746096,-0.00333052438614086
2.755,-0.000433666144568484,0.00347856955389963,-0.0121578885853108
2.76,-0.00491129675410284,0.00387029327985749,-0.0128474999018888
2.765,-0.00852285889421927,0.00358396349899558,-0.00748681462354747
2.77,-0.0111907152006418,0.0023751940366575,-0.0153931500363674
2.775,0.00531058443848214,0.00416236864736595,-0.0210794990781564
2.78,0.00904110985480134,0.00369523439530361,-0.0151087494285204
2.785,0.00821352907161015,0.00772369701692224,-0.0157716597077249
2.79,0.00457968016417582,0.0102646586289941,-0.0154100682545376
2.795,-0.00122618200779306,0.0138053854696848,-0.016388303193397
2.8,0.0126430327278229,0.0116968206247592,-0.00438542739757964
2.805,0.0210805868406402,0.0105581468627779,-0.0143061632116535
2.81,0.0202265967189331,0.0154349498867126,-0.0131140296131316
2.815,0.0170387291510884,0.0141665778916996,-0.00865164993674306
2.82,0.0222429838619234,0.0145633237373282,-0.0134730728551703
2.825,0.025877516711189,0.0132753465092612,-0.0148528093665131
2.83,0.029032618513317,0.0113818030581042,-0.00838467393937019
2.835,0.0268883152884806,0.00960941040347286,-0.00174855488382196
2.84,0.0242998572789172,0.00676704608677941,-0.00205363201925549
2.845,0.0318196298789896,0.00145111879932956,-0.0108010751370946
2.85,0.033340532887443,-0.000402228416781196,-0.00689620905047965
2.855,0.0277864570863398,0.00263428149221506,-0.00348633298316871
2.86,0.0212603673101867,0.00290798365794737,-0.00834063774336962
2.865,0.0209495705928456,0.00257966300904838,-0.00816465394436483
2.87,0.0209272992880508,0.00168799464859204,-0.00945148897530236
2.875,0.0259109279355092,0.00495357274829943,-0.00145348926728756
2.88,0.021280214388736,0.00273824587481908,-0.00180079401366858
2.885,0.0196820353131434,0.00215825831934272,0.00478135666923305
2.89,0.0234362416093353,0.0020956708299349,0.00923121888149166
2.895,0.0288006655140909,0.0031809456188281,0.00315479438835406
2.9,0.0282112317414484,0.00347170018986969,0.00160522475085055
2.905,0.0276217979688058,0.0037624547609113,5.56551133469055e-05
2.91,0.0323726783657967,0.00699829423296795,0.00299736452400223
2.915,0.0375803926548789,0.0046781595647795,0.000869042715166096
2.92,0.0372562572815892,0.00424072488583096,0.000572543700442724
2.925,0.0425427731718374,-0.00161205418655677,-0.00481594589958219
2.93,0.043105800565781,0.00177719349553549,-0.00364366994797657
2.935,0.0342214072650521,0.00437874944192099,-0.00768613588399058
2.94,0.0212586764205529,0.0040667330438581,-0.0159513765642431
2.945,0.0233931832126391,0.00437732480349639,-0.0117715503732996
2.95,0.0379967232786922,0.00244542304566678,-0.0177082408664153
2.955,0.0399260550062316,-0.000251420297702273,-0.0250616850871072
2.96,0.0378249939000019,8.00861130995166e-05,-0.0250383110589564
2.965,0.0120337652461361,0.00473131873789679,-0.0151337830954124
2.97,0.0159228697691984,0.00579949069865268,-0.0193098242889416
2.975,0.0262185209691489,0.011573345063252,-0.0247467738881739
2.98,0.0256286443899113,0.0111983339290414,-0.0227219403291071
2.985,0.0267605229824652,0.0116936003575776,-0.0217242300476948
2.99,0.0272309408014802,0.0119041942596964,-0.022026228747367
2.995,0.0277013586204951,0.0121147881618153,-0.0223282274470391
3,0.02817177643951,0.0123253820639341,-0.0226302261467113
3.005,0.028642194258525,0.0125359759660529,-0.0229322248463835
3.01,0.0291126120775399,0.0127465698681718,-0.0232342235460557
3.015,0.0295830298965549,0.0129571637702906,-0.0235362222457278
3.02,0.0139813362403157,0.0137921425535191,-0.0118883115614865
3.025,0.013780709807106,0.0139237326594259,-0.0117631527295817
3.03,0.0135800833738962,0.0140553227653328,-0.0116379938976769
3.035,0.0133794569406864,0.0141869128712396,-0.0115128350657721
3.04,0.0131788305074766,0.0143185029771465,-0.0113876762338673
3.045,0.0129782040742669,0.0144500930830533,-0.0112625174019625
3.05,0.0127775776410571,0.0145816831889602,-0.0111373585700577
3.055,0.0125769512078473,0.014713273294867,-0.0110121997381529
3.06,0.02906225049168,0.0156266844372862,0.00368395920597627
3.065,0.0248861087104892,0.0121981546061619,0.0173767030260947
3.07,0.0247282618403855,0.0129250386391573,0.0162199120897203
3.075,0.0245704149702817,0.0136519226721526,0.0150631211533461
3.08,0.024412568100178,0.0143788067051479,0.0139063302169719
3.085,0.0242547212300742,0.0151056907381431,0.0127495392805977
3.09,0.0240968743599705,0.0158325747711384,0.0115927483442234
3.095,0.0239390274898667,0.0165594588041338,0.0104359574078491
3.1,0.0181563488896959,0.0177011989733696,0.00926973364692234
3.105,0.0226726133951915,0.0206601270986331,0.00603270101771178
3.11,0.0292272752779151,0.0207446559483763,0.00803083592849711
3.115,0.0279468038742624,0.017503742242685,0.00152455146146708
3.12,0.0154749095797198,0.0124620419976831,0.000555113156581747
3.125,0.00369294466176671,0.0154747712812687,0.00623101242847981
3.13,0.00548267790930835,0.0169048763745694,0.00919395806252822
3.135,0.00310194004692544,0.0154075986788824,0.0105442057140752
3.14,0.00139210917545212,0.0155870307688313,0.00322509112273488
3.145,-0.0081743380083619,0.0159850091988647,0.00578198238504883
3.15,-0.00470758958615983,0.0167197183200054,0.0107538265857125
3.155,0.000449842654180625,0.012851561439022,0.0157447989288856
3.16,7.67805705051904e-05,0.0123368715139108,0.0147053862413741
3.165,-0.00473480549886643,0.00584544705479017,0.00375048950950816
3.17,-0.00138042730542883,0.0108038650267557,0.0117479744041701
3.175,0.00282660338273821,0.0167088401240201,0.00994903125534809
3.18,0.00576909394894786,0.0171072852576426,0.00675193043684152
3.185,0.00064541188876604,0.0152692502509038,0.00347726461392514
3.19,-0.00239830646166632,0.0143073408151011,-0.000376675446458868
3.195,-0.00918713347559132,0.0149704516192547,-0.00407809404799518
3.2,-0.0134507696166487,0.00236744763439251,0.000849043614589838
3.205,-0.0160425488120461,0.00127691243129191,-0.00389433442852291
3.21,-0.0257291342053586,0.00372183580737809,-0.00491757539867876
3.215,-0.0461204434473589,-0.000458043687091264,0.00505520159002164
3.22,-0.0347471023957314,-0.00797772247939117,0.00163840325704741
3.225,-0.0155116457547903,-0.0122491123673217,-0.00646574043574168
3.23,-0.00167420034848151,-0.010816284388059,-0.00497276538901625
3.235,0.0143842420757244,-0.00918865922518141,0.010207113517963
3.24,0.0348486551221667,-0.0153600003196448,0.0136264537654762
3.245,0.0378031692846072,-0.0187769338278841,-0.00747213661534749
3.25,0.0240232554153604,-0.0128520056278131,-0.0122217855355141
3.255,-0.00261181658804046,-0.0107868193594024,0.00593293591378823
3.26,-0.00983351311248749,-0.0161563257030953,0.00674451786281776
3.265,-0.00517633923524762,-0.015063814866751,0.00345217179789874
3.27,-0.00309711421175238,-0.0150743786250356,0.00160562656503811
3.275,-0.00101788918825713,-0.0150849423833201,-0.000240918667822525
3.28,-0.00947350151406481,-0.0117261094445275,0.00614077431058253
3.285,0.00924878219193363,-0.00640343308018247,0.00430047081192481
3.29,0.0330777618662745,-0.00549807301740949,0.00154642499066872
3.295,0.0341940530978683,-0.0060640074762693,0.00461862900746469
3.3,0.0274338189799622,-0.00566562579744991,0.00976007195504878
3.305,0.0137593454224749,-0.00837354149599366,0.00850995839150205
3.31,0.00319454904367744,-0.00882728590698532,0.00353586233313682
3.315,0.00382093656887031,-0.00878260966637102,0.00246921103122386
3.32,0.00444732409406324,-0.00873793342575672,0.00140255972931082
3.325,0.00507371161925611,-0.00869325718514242,0.000335908427397863
3.33,0.00570009914444898,-0.00864858094452813,-0.00073074287451509
3.335,0.00632648666964185,-0.00860390470391383,-0.00179739417642804
3.34,0.00695287419483472,-0.00855922846329953,-0.002864045478341
3.345,0.00757926172002765,-0.00851455222268523,-0.00393069678025404
3.35,0.00820564924522052,-0.00846987598207093,-0.004997348082167
3.355,0.00883203677041339,-0.00842519974145664,-0.00606399938407995
3.36,0.021908293845194,-0.0213739819324349,-0.00987164937756321
3.365,0.0217122811534298,-0.0234264648027437,-0.00630586584878572
3.37,0.0120304160621017,-0.0162843987440058,0.00111584795192436
3.375,0.00776321126392369,-0.0137355670253345,-0.000477187720429722
3.38,0.0199408571810628,-0.0112998746545247,-0.00924390027791554
3.385,0.0197158482194905,-0.0102410531361603,-0.0104230566238603
3.39,0.0138204890323897,-0.0100800156930979,-0.00511396831571483
3.395,0.0189341304032942,-0.00670084253535963,-0.00149644995603727
3.4,0.0142449216658621,0.000686127535115484,-0.00449121993563105
3.405,0.00878644844458481,0.000203396014186074,-0.00883878779192961
3.41,0.0131342025069065,-0.00225613239780059,-0.00440900780602361
3.415,0.020078746233375,-0.000190651403211603,-0.000709633654970077
3.42,0.0259735915351142,0.000510016305118253,-0.00176777267092507
3.425,0.0177431987426163,0.000900859197087855,-0.00340038045166761
3.43,0.00954010650842544,-0.00131401951506329,-0.00519039455703519
3.435,0.00966192081212948,-0.00335728353521943,-0.000237364807768134
3.44,0.00851348912662365,-0.00524579519035638,-0.00031122792766566
3.445,0.00853791439992254,-0.00554048739685361,0.0011000649062491
3.45,0.0142358994804486,-0.00914109287658912,-0.000688706473803084
3.455,0.00369487902217171,-0.00483365471687613,0.00411012030632972
3.46,0.00570876423776607,-0.00413564539273002,0.007298574447326
3.465,0.00324255166445344,-0.00231780882242597,0.00310522896322878
3.47,0.0103094465960134,-0.00344862497525533,-0.00620790365468621
3.475,0.0160274533464465,-0.0055080857258366,-0.015370026191007
3.48,0.0157557808868046,-0.00792347305939214,-0.0224901593378628
3.485,0.00385165647673764,-0.0112311592309472,-0.0155679979872355
3.49,0.00587531832064062,-0.00745014744304697,-0.0170221484217908
3.495,0.00536074191384462,-0.00438533123283158,-0.0202569152523036
3.5,0.00584147209683926,-0.00471725924391715,-0.0176463489858333
3.505,0.00722020822087539,-0.00379671866295465,-0.0169333759917721
3.51,0.00859894434491165,-0.00287617808199208,-0.0162204029977109
3.515,0.00674073099401448,-0.00778727276652615,-0.00397043555588849
3.52,0.00650078990804795,-0.0088951634055379,-0.0102051516924442
3.525,0.00491970347632187,-0.00317682082000911,-0.0109675624617234
3.53,0.00264096974568666,-0.00262926500596894,-0.0102556489617488
3.535,0.00320370305547442,0.000147977213712955,-0.0239068734912026
3.54,0.00475297297181923,0.000176997758965825,-0.0259164352735845
3.545,0.00753039011189011,-0.004163054958222,-0.00863912240441357
3.55,0.00968881219594201,-0.00479319694240423,-0.00528326730529847
3.555,0.0185908869423725,-0.00150853611656757,-0.00709662039120432
3.56,0.0153120618776625,0.00102714806410387,-0.0117214590381595
3.565,0.0102796690549887,-0.000719883237094683,-0.009816026640543
3.57,0.0123390988098378,0.00184522624018838,-0.00365120499393696
3.575,0.0154804580917718,0.00223006648262237,-0.00740474350954954
3.58,0.0134298432331222,-0.0014227310262025,-0.0152642831536639
3.585,0.00694607990033228,-0.00334972054997953,-0.00933242249935442
3.59,-0.00114559626091079,-0.00172639280286435,-0.00585264591544595
3.595,-0.0125263509207892,-0.00766738639170414,-0.0123103106227565
3.6,-0.0124126090068276,-0.00797376195914974,-0.0127881445326511
3.605,-0.00657982766293238,-0.00430730165824074,-0.00676501867440595
3.61,-0.0141305428750103,-0.00835752917743951,-0.00862156860584779
3.615,-0.0204963647917221,-0.00866482515782958,-0.00625806159748338
3.62,-0.0125394886218693,-0.0046316125078247,-0.0072247345136958
3.625,0.00225646186618248,0.00381811448871019,-0.00650229387473831
3.63,-0.00604351747128565,0.00415536898100912,-0.00391045448468938
3.635,-0.0124891663520468,-0.0015657231840635,-0.0109598900722123
3.64,-0.0162870276898193,-0.00390523533749748,-0.0124254138511281
3.645,0.000474319733907786,-0.00496701344977456,-0.00957261494087643
3.65,0.00112603239713523,-0.0034550934917144,-0.0173242138619608
3.655,-0.016728350759525,-0.00196864750351846,-0.0193496139164507
3.66,-0.0105534685112948,-0.0047252474097486,-0.0145608218139198
3.665,0.000684563134125568,0.000424856497042533,-0.0231539380215975
3.67,0.00180189254075894,0.00257266215758779,-0.0260269485340082
3.675,-0.012328002479732,-0.00383325912782652,-0.0176959414643134
3.68,-0.0209351273757366,-0.00693401713502999,-0.0159473193509594
3.685,-0.0250110386868054,-0.00387667216131012,-0.022912033371976
3.69,-0.0256260905555122,-0.00192488451577143,-0.0256280282013109
3.695,-0.0207278215808366,0.00528227976449339,-0.0203361762962747
3.7,-0.0255467953550399,0.00571453514488448,-0.0172212037340195
3.705,-0.0262395448749224,0.00634310952445813,-0.0183565374392085
3.71,-0.0160700304023305,-0.00101213900247015,-0.02199209150067
3.715,-0.00815529954643248,-0.00036094520563977,-0.0180568597053063
3.72,-0.00672265862373988,-0.00222664161621609,-0.0188131571536199
3.725,-0.0107127815748123,0.000302316686949696,-0.0174016199240466
3.73,-0.0183288007422541,0.00154878483107177,-0.011773630085417
3.735,-0.0193436107385478,-0.000818761799510948,-0.0137881435009536
3.74,-0.0205940355439,-0.00267126893501126,-0.0214242093702957
3.745,-0.0157413555689889,-0.000517652140433355,-0.021522589001532
3.75,-0.0188138679802203,0.000117559938387327,-0.0258392907474528
3.755,-0.0206441113453555,0.00278990942161746,-0.0195086122076605
3.76,-0.00738437158193998,0.00199390952316278,-0.016302088570051
3.765,-0.00764587007457992,0.00186206897596689,-0.0147536294307314
3.77,-0.00639351833892057,0.00470615869140013,-0.0217929399187406
3.775,-0.00134171735073178,0.00245707738730737,-0.0222865700502667
3.78,0.00398369586402867,0.00239696727208169,-0.0159317678464365
3.785,-0.00115796104160714,0.00576316480838867,-0.0115823824919548
3.79,-0.00347030652895891,0.00931717550184693,-0.0168672035086006
3.795,-0.00746419495189333,0.00800315117293109,-0.01812673553746
3.8,-0.00561970211399928,0.00865880708145083,-0.011699296184505
3.805,-0.00630567065616332,0.00928920452598597,-0.0109119742996505
3.81,-0.00145935038322968,0.0118046125578697,-0.0145910739467392
3.815,-0.00295784810573898,0.0157538853506174,-0.000522678052289159
3.82,0.00244877854600751,0.0146825503936068,0.00124200350863987
3.825,0.00582955659409328,0.0126569991754867,-0.000689615230218056
3.83,0.0132329913763876,0.00574359799046988,0.0242709819492821
3.835,0.00855912365951257,0.0039426900621167,0.0300042481057567
3.84,0.00720465066437398,0.0033012092540076,0.0312199147715434
3.845,0.00585017766923528,0.00265972844589844,0.0324355814373301
3.85,0.00449570467409669,0.00201824763778934,0.0336512481031168
3.855,0.00314123167895811,0.00137676682968025,0.0348669147689034
3.86,0.00178675868381952,0.000735286021571148,0.03608258143469
3.865,0.000432285688680814,9.38052134619931e-05,0.0372982481004768
3.87,-0.037081565656583,-0.0346418918707841,0.0802917957208591
3.875,-0.0431712996290171,-0.0311561109254037,0.065735722695687
3.88,-0.0886867811517968,-0.0562122097650524,0.0424471063797956
3.885,-0.15199526254288,-0.0976392290982505,0.0357561019129803
3.89,-0.184676653228038,-0.119727289141826,0.0678141806633646
3.895,-0.192268759808724,-0.118016858873873,0.0841786617784362
3.9,-0.0658362239231251,-0.0817333102975597,0.178844278455464
3.905,0.0297530380542067,-0.0397610973609584,0.208999783697197
3.91,0.0774774293169332,0.0049947667514668,0.226636169668744
3.915,0.0962399442073828,0.0441767983291485,0.237260841490148
3.92,0.0979108159451338,0.0706365250579241,0.25025845112061
3.925,0.0966973821368818,0.118714981187145,0.280118941188124
3.93,0.091963818864703,0.150101739948903,0.2785278845876
3.935,0.0755190686047501,0.162672697402479,0.271861910274819
3.94,0.052574258317621,0.178219820786173,0.27615246351509
3.945,0.049004385990193,0.189318075705619,0.293573325054435
3.95,0.0651430013780502,0.195970907870132,0.302382633271803
3.955,0.0971048943322764,0.199342584431453,0.288327543231342
3.96,0.117431580449843,0.197639395885239,0.272691594321708
3.965,0.115267998695993,0.189427956354605,0.2668606833191
3.97,0.0997372021983075,0.182714124511744,0.266372117090093
3.975,0.0800852039126198,0.176622873211522,0.259620996878267
3.98,0.0687452214797657,0.165934422701633,0.242567658606113
3.985,0.0668533175867875,0.153387677170262,0.227445878657498
3.99,0.0739027645927302,0.139790066628302,0.226802652825264
3.995,0.0727792741144425,0.123537327780743,0.223875192323919
4,0.0570349480819065,0.117372841135431,0.219607696374346
4.005,0.0549480312375696,0.117009923428926,0.217917720884384
4.01,0.049360044568826,0.114586618073996,0.212705061201641
4.015,0.0369320360541119,0.122628047200065,0.208708381238686
4.02,0.0229969389618241,0.12362630887288,0.220222084664297
4.025,0.0028314461718856,0.121082217855031,0.241659690507897
4.03,-0.00770644878135916,0.115182341161054,0.240118165227839
4.035,-0.00179970288927945,0.113971739086888,0.237041194271029
4.04,0.0110733534325224,0.127222104135181,0.249886168217709
4.045,0.0378677004165965,0.139488449024458,0.266361228897615
4.05,0.0560767621910119,0.142370523286217,0.280866195175056
4.055,0.0603158228965684,0.144490808823221,0.296490680571506
4.06,0.0682131084368819,0.151688956850146,0.296209109371248
4.065,0.0708172083782428,0.165106336096812,0.300699593826709
4.07,0.0772918968453891,0.179203505705314,0.31013469427229
4.075,0.081088966026363,0.189063281503024,0.317278871538915
4.08,0.083113790006326,0.193136089515347,0.321532085686014
4.085,0.0814431275172184,0.236020412863326,0.359897803030484
4.09,0.0533185022828472,0.249718607606971,0.360665930787679
4.095,0.0163537304695925,0.24636451648996,0.365258118947196
4.1,-0.0540660788819691,0.222415645045922,0.365592203604768
4.105,-0.200070458470512,0.169672676016742,0.348244969667364
4.11,-0.442348662476137,0.0655558555408009,0.303561360477767
4.115,-0.551360515095683,0.0155356605374015,0.298742599765181
4.12,-0.629439528224825,-0.049309391929381,0.322432197194507
4.125,-0.595759751000756,-0.0965331513534783,0.302145031866602
4.13,-0.418435873813488,-0.119224570419862,0.3041308049347
4.135,-0.339195951297057,-0.112760622194933,0.316434424145123
4.14,-0.312621849605652,-0.107395957691232,0.320245465374798
4.145,-0.286047747914242,-0.102031293187531,0.324056506604475
4.15,0.568676741597216,0.169857274284193,0.34911373853936
4.155,0.677991377374128,0.166983592366518,0.339622051087572
4.16,0.629651281606226,0.119171465500506,0.320512310372301
4.165,0.499608133269132,0.0737091808054834,0.284032480757829
4.17,0.379843024478202,-0.00195343671067877,0.25070693752689
4.175,0.33249210966876,-0.0684289918429812,0.203265214432021
4.18,0.252425230531507,-0.126909045842236,0.149297710438975
4.185,0.147889654575525,-0.180486631059494,0.142885660707854
4.19,-0.00565110352364829,-0.199371447431748,0.137537442936995
4.195,-0.133006408872291,-0.218182398849138,0.10407765999322
4.2,-0.13348057050919,-0.246860018421911,0.0568987727280869
4.205,-0.106718896189354,-0.266432941165434,0.0083776641808796
4.21,-0.0479512824490336,-0.282401340711485,0.000600059954798846
4.215,-0.0414117857182485,-0.286993362086322,0.00256757334495782
4.22,-0.0531870141100193,-0.261129835230223,-0.0177926449870319
4.225,-0.0500496228848295,-0.22259729208727,-0.0594830489512004
4.23,-0.0401090982997293,-0.181198735104595,-0.0768947620597613
4.235,-0.0347204370412943,-0.143386654127748,-0.0725312969937777
4.24,-0.0300128091997946,-0.0986600355196969,-0.0721330031315434
4.245,-0.0294428155700693,-0.0609387111048747,-0.0776945855023734
4.25,-0.0212886468050964,-0.00714266158567825,-0.0894548191477789
4.255,-0.0307547144647274,0.0202626275182086,-0.0950849076401279
4.26,-0.0572362979850486,0.0452226352587272,-0.0964519348494389
4.265,-0.0908265813453189,0.064763264256509,-0.0914359293175837
4.27,-0.144346185685865,0.0881759890620501,-0.0949197142106193
4.275,-0.171301029523214,0.0995415941377484,-0.0938469473024206
4.28,-0.190086949708702,0.106534723445393,-0.0877051964953135
4.285,-0.20385251697074,0.10530724714255,-0.0835428980530849
4.29,-0.22003099067303,0.0925352895473008,-0.0698731038089976
4.295,-0.230278782245262,0.0883885057699665,-0.0677080444514901
4.3,-0.261110748904811,0.0778912710224563,-0.0758452386121874
4.305,-0.271138125082857,0.0715920004619889,-0.0783928986116527
4.31,-0.278589131224272,0.0496554575266933,-0.0663454430774323
4.315,-0.272102915899195,0.0246590495771689,-0.0506699434980835
4.32,-0.266194852092207,0.00692924594285173,-0.0396786254261243
4.325,-0.272551569599255,0.00651846851028444,-0.0414715121217768
4.33,-0.286621902318378,0.023514952248858,-0.0510364705369969
4.335,-0.278042296099126,0.0319845090555548,-0.0476413281939486
4.34,-0.220023244251141,0.0242806092864303,-0.0317442831745462
4.345,-0.16005792560177,0.00252286354566567,-0.0167820747516695
4.35,-0.119691529970125,-0.0228923255147066,-0.00865389172748145
4.355,-0.113699739698334,-0.0290633677788917,-0.00665843743904621
4.36,-0.112270538584376,-0.0302896105279121,-0.00648083158438144
4.365,-0.110841337470419,-0.0315158532769326,-0.00630322572971667
4.37,-0.109412136356462,-0.0327420960259531,-0.00612561987505189
4.375,-0.107982935242504,-0.0339683387749735,-0.00594801402038712
4.38,-0.0781432133835144,-0.0809783886061125,-0.0494755747123207
4.385,-0.0640575650629711,-0.0755476250504067,-0.0411855516813168
4.39,-0.0459760867689841,-0.0620081968519019,-0.0323897578290168
4.395,-0.0425464843264365,-0.0541679517629333,-0.0327863311530443
4.4,-0.0462523244213681,-0.0238302928346811,-0.041040651647864
4.405,-0.0252206385711481,-0.00902189371149663,-0.0463763136818251
4.41,0.0855565059013655,-0.0456694615550385,-0.0208419332124128
4.415,0.173852485601237,-0.0868113665750812,-0.0151807798011544
4.42,0.318265147527919,-0.128823363495777,0.0107872402833292
4.425,0.295673823185758,-0.100547064011428,-0.00516085718658366
4.43,0.281201877962121,-0.0828312036322017,-0.0136001009772342
4.435,0.0780300919118782,0.0696011759864357,-0.0450218620766098
4.44,-0.0957596080173004,0.158287727947899,-0.0674432702754131
4.445,-0.106868151231748,0.186856004326954,-0.0680873010378762
4.45,-0.0795847077852259,0.19274147698366,-0.104168769638936
4.455,-0.0376835180797634,0.180078323901588,-0.163127111083431
4.46,0.103719062591237,0.105075677073892,-0.175486618327699
4.465,0.160012775176619,0.0236201316449391,-0.108858245383108
4.47,0.199505634481118,-0.0635645030762679,-0.0303415888785642
4.475,0.213693212548595,-0.0923181750791168,-0.0329814864907929
4.48,0.150766111091754,-0.167641013502366,-0.0807962498651
4.485,0.0604991974037381,-0.233606164233063,-0.0851265658420843
4.49,0.00852982251476092,-0.246825801014607,-0.0562268979824798
4.495,0.0376323771768346,-0.229693724294325,0.0144483099791737
4.5,0.0739970682893383,-0.234764955162987,0.0777309110931772
4.505,0.079759995979674,-0.235205292285097,0.0927848740398536
4.51,0.0756008637147595,-0.202239861232965,0.0920469972723631
4.515,0.0531357483377531,-0.178125015805538,0.0914874690411455
4.52,0.0202143639375832,-0.149094968464455,0.108660882082013
4.525,0.00735578253770497,-0.109231656535742,0.119876183015007
4.53,0.000502057632112015,-0.0863906988794257,0.118291827276936
4.535,-0.00268141192876486,-0.074873719680059,0.116725742511332
4.54,-0.0862386923679533,0.00469589090373309,0.149258268604694
4.545,-0.091116019319964,0.0549079071623498,0.163769684868361
4.55,-0.0664508141786544,0.0866818064916881,0.165406208640593
4.555,-0.051683634022482,0.104623524574657,0.155992129552817
4.56,-0.0400719895384894,0.130998211082115,0.155013012658461
4.565,-0.020999435757438,0.153029740199245,0.16498629039321
4.57,-0.00577644201505734,0.160251281971301,0.17411495187175
4.575,0.00630494411794334,0.15862680813278,0.178251236895816
4.58,0.00922982451073395,0.159097638482927,0.177254945115334
4.585,0.0107097435489321,0.158825061363623,0.176618311187011
4.59,0.0121896625871303,0.158552484244319,0.175981677258688
4.595,0.0913774646951267,0.145407496536654,0.160513512430941
4.6,0.0898768966849021,0.138575079212679,0.160488054389013
4.605,0.0766230751954789,0.132346705057415,0.154710629526201
4.61,0.0590748713113972,0.118690117510651,0.151020670234493
4.615,0.0466897813189642,0.110007932393401,0.149796523733906
4.62,0.0434162566486744,0.108919236513635,0.14933022811552
4.625,0.0401427319783845,0.10783054063387,0.148863932497133
4.63,0.0125418459689302,0.10475383108236,0.135563970547208
4.635,0.0103547320131613,0.102376765235043,0.138468350980417
4.64,0.00607110202769682,0.0997292474671654,0.136733406529081
4.645,0.00123524056506086,0.0922863106232791,0.140501532213111
4.65,-0.004758906024847,0.0900790303766072,0.137890104061192
4.655,-0.0220757328594381,0.078028545003067,0.131788856378746
4.66,-0.013971879755011,0.0749963000738891,0.134323000977609
4.665,0.00635367185226143,0.0723296945065102,0.147120317363914
4.67,0.0121753853388078,0.073293657555827,0.154432005537542
4.675,0.00708158106151635,0.0722602358548786,0.15529290005635
4.68,-0.0101356579393368,0.0780009280203939,0.149456876231886
4.685,-0.0192434788675788,0.0829472440969179,0.144295978273362
4.69,-0.0188825483605809,0.0918216045112057,0.15006520049003
4.695,-0.0287388355953966,0.0975484207115621,0.152544925075416
4.7,-0.080090580253081,0.0673442868647803,0.162665088353951
4.705,-0.206671950911165,0.0105708684190436,0.147300322349709
4.71,-0.259387830206451,-0.0138604654171232,0.13559198024637
4.715,-0.43853444986456,-0.0973450223674926,0.125342122520153
4.72,-0.467267806560006,-0.136592588367423,0.13723695536888
4.725,-0.416048726132357,-0.154877857018731,0.154182829581548
4.73,-0.292975135249805,-0.158004231171051,0.1792362568888
4.735,-0.0641828029814265,-0.104286516845528,0.232054866391186
4.74,0.194446305052814,-0.0218692401004231,0.29982467716918
4.745,0.404208068746918,0.0674573981831968,0.313793662720606
4.75,0.511569341726619,0.126517554489504,0.320343156206037
4.755,0.545993496232981,0.138832296821021,0.316269872747576
4.76,0.580417650739342,0.151147039152539,0.312196589289115
4.765,0.665238574128387,0.0614349200350534,0.300867853630148
4.77,0.589266224707133,0.0268579208210327,0.277102100541641
4.775,0.389867300118874,-0.0692755376371909,0.244126112592435
4.78,0.378140875095108,-0.0780087276435931,0.242849178770189
4.785,0.366414450071342,-0.0867419176499953,0.241572244947944
4.79,0.174430201997973,-0.271556168497318,0.166343834407463
4.795,0.135250946508755,-0.275623715254469,0.161424554428452
4.8,0.0219098380520702,-0.339052579669801,0.0919492043473818
4.805,-0.0271639379975388,-0.347185357395436,0.0781911006624025
4.81,-0.0381440622312459,-0.347701767666676,0.0784013685582733
4.815,-0.10335431004992,-0.354338100174836,0.0477910017312607
4.82,-0.0867323076600168,-0.338622166742451,0.0351551401140446
4.825,-0.0676588853129476,-0.313590857900063,0.0216967123112033
4.83,-0.0615597935555136,-0.307286346034021,0.0234220392304998
4.835,-0.0554607017980796,-0.300981834167979,0.0251473661497964
4.84,-0.0236246245221284,-0.178070952226927,0.0170428244158201
4.845,-0.0134733182364227,-0.12863464054322,0.00015005190296601
4.85,-0.0120717341521034,-0.119125438458601,-0.00343478154556453
4.855,-0.0106701500677843,-0.109616236373983,-0.00701961499409443
4.86,-0.0432243318823734,0.0456617320750313,0.0136587272186602
4.865,-0.0640916043674468,0.0795424666202389,0.00352685974137907
4.87,-0.0708018512588275,0.0936721985993716,-0.00362399756347565
4.875,-0.0919764463248967,0.115167169577494,0.00614986884654782
4.88,-0.141896694615827,0.131113618869883,0.0134763008528881
4.885,-0.194350719189654,0.131768024283121,0.00932103660475121
4.89,-0.243338502334846,0.118090795428159,0.0155209655826913
4.895,-0.269232891276359,0.105802691195649,0.0179148699030611
4.9,-0.280678212072609,0.0989141646469441,0.0178843505565068
4.905,-0.283440663018024,0.0960429648907306,0.0179382948052284
4.91,-0.290625777534732,0.0329161601814544,0.0227854186907979
4.915,-0.293261159856982,0.0157411922997091,0.0287398853186003
4.92,-0.294174536537748,0.00966428484476572,0.0349687346301281
4.925,-0.307640525824604,5.57677601611471e-05,0.0223801094562481
4.93,-0.31420088972875,0.00439255296519898,0.0126420296111865
4.935,-0.304275635301861,0.00731396024823597,0.0217874478268364
4.94,-0.246145088295543,-0.0162015254814809,0.0481613078261484
4.945,-0.181619471189896,-0.0393587107200042,0.0557166503893023
4.95,-0.125555161991737,-0.0629215571071424,0.0559745734124762
4.955,-0.108350293582751,-0.082371483203245,0.0608382882372706
4.96,-0.101908376309971,-0.103417615703215,0.0530353539905221
4.965,-0.112094965798813,-0.108026115999276,0.0468100040362992
4.97,-0.110805408428446,-0.10995598809484,0.0478185598002702
4.975,-0.095553534697705,-0.106612399256584,0.0563726498522256
4.98,-0.0734810593940448,-0.101707939687541,0.0559736844008088
4.985,-0.0673135108500106,-0.0940401040509,0.0548570306869198
4.99,-0.0628332186295707,-0.0848541586768148,0.0538161814326287
4.995,-0.0638910081925346,-0.0648739197086734,0.0570988934763253
5,-0.068107716443511,-0.061143734637771,0.0561165962228038
5.005,-0.0724140605033959,-0.058562003048856,0.0547710937598518
5.01,-0.0557007042792709,-0.0288148655790504,0.0565666917172956
5.015,0.0788598788758223,-0.0901804370103564,0.0864813617305452
5.02,0.165161021875496,-0.113473560967269,0.113137339373358
5.025,0.179248135048258,-0.112910909601272,0.117312926107163
5.03,0.19333524822102,-0.112348258235276,0.121488512840968
5.035,0.169157833549866,0.018550587926327,0.0671099084557668
5.04,0.150431262221408,0.0562977775365125,0.0343626965464179
5.045,0.158611369908745,0.0631407359775513,-0.00546851135447324
5.05,0.174659400909004,0.0585202371919581,-0.0365718676936955
5.055,0.150382198554884,0.00750386822802,-0.0359858953517246
5.06,0.148649111879465,-0.0474726219898865,-0.0386023224403906
5.065,0.243935250780351,-0.139033432069552,-0.025728836706177
5.07,0.306211884675233,-0.17307934958794,-0.0451321278373442
5.075,0.304920114513247,-0.17978608388321,-0.0551136358852072
5.08,0.216397827261415,-0.204928103098112,-0.0384772111871156
5.085,0.130624262712866,-0.241597275577118,-0.0336327512709971
5.09,0.121704055442886,-0.240442080937233,-0.0358296145256197
5.095,0.151581995203085,-0.225410985656669,-0.019737255577125
5.1,0.15385780730429,-0.224993742839621,-0.0121883238042473
5.105,0.152986595269593,-0.225309396675234,-0.00748494930799829
5.11,0.152115383234897,-0.225625050510846,-0.00278157481174924
5.115,0.1512441712002,-0.225940704346458,0.00192179968449981
5.12,-0.0105444221783558,-0.0997729211066289,0.037353678775414
5.125,-0.0323031521774749,-0.0475181143192561,0.0435053977585179
5.13,-0.0487163870901086,0.00692342899619954,0.0451019776818488
5.135,-0.0668977881055802,0.029553321072493,0.0426791698635281
5.14,-0.123851544712288,0.0849670064474009,0.0576413666837209
5.145,-0.131407370674248,0.118818266707628,0.0676449274125982
5.15,-0.104764908684453,0.137020327998999,0.0704609328491337
5.155,-0.0937636867395488,0.141157312254854,0.0727466221899365
5.16,-0.0913711739763039,0.141963885301402,0.0726031164698747
5.165,-0.0889786612130589,0.142770458347951,0.0724596107498129
5.17,-0.086586148449814,0.143577031394499,0.0723161050297511
5.175,-0.084193635686569,0.144383604441048,0.0721725993096893
5.18,-0.081801122923324,0.145190177487597,0.0720290935896275
5.185,0.0418040640249575,0.133563094271966,0.0703342858502844
5.19,0.0614135089268423,0.107512565875603,0.0580200470474057
5.195,0.0820062615672099,0.0955295409211817,0.052557688630916
5.2,0.103435605359359,0.0709076498817812,0.0542446059215017
5.205,0.105297866386331,0.0540115692495299,0.0502225584291658
5.21,0.106055853239687,0.0506525239176574,0.0498630578413077
5.215,0.0759826234242468,0.0388731854136665,0.0536977877276262
5.22,0.0680067691996648,0.0408289581386013,0.0497913771205845
5.225,0.0677062301429078,0.0403237582055291,0.0494238350095611
5.23,0.0674056910861509,0.0398185582724569,0.0490562928985377
5.235,0.0671051520293939,0.0393133583393847,0.0486887507875144
5.24,0.0116000740436697,0.0360966911581352,0.0557412022227528
5.245,-0.00844009085788019,0.0298256590856199,0.0524464301684612
5.25,-0.0184178533406649,0.0299154455127853,0.0484004184732336
5.255,-0.0273121734741383,0.0352532546314461,0.0346973619509161
5.26,-0.030550460551239,0.031463117913336,0.0349501973341246
5.265,-0.0293172213682617,0.0352897184823279,0.055688111114624
5.27,-0.019289520865919,0.056661655035939,0.0625498274520048
5.275,-0.0212282492011768,0.0685539035590162,0.0572272151603235
5.28,-0.0342791664310785,0.0876861606314572,0.0443323203216992
5.285,-0.0430801233844292,0.112158783092,0.0407155240192216
5.29,-0.04434005441843,0.119485870142655,0.0574335542966563
5.295,-0.0361976068985497,0.127391665369698,0.053645066892064
5.3,-0.0243438014831241,0.130480648527068,0.0393887000542388
5.305,-0.0313187276797862,0.129679113348909,0.041016287896535
5.31,-0.217218539849057,0.0233840090696949,0.0524200141786022
5.315,-0.338651159360118,-0.0359768660051116,0.0260867871495615
5.32,-0.373619519732506,-0.0842662601367987,0.026629010867874
5.325,-0.39780716011556,-0.134152682425533,0.0320811639004156
5.33,-0.360678310978153,-0.162114727874785,0.0427904197994267
5.335,-0.33723536992844,-0.163797492982179,0.0499517679625444
5.34,-0.00507889006345824,-0.0272041510382862,0.164541758165955
5.345,0.214457345808712,0.0776806757252267,0.222333110445848
5.35,0.350162914055182,0.144623071379033,0.233902225421019
5.355,0.404150440666791,0.168460234845021,0.235713429551347
5.36,0.628066993610902,0.194273895683195,0.254170096816168
5.365,0.688154909208438,0.122200808744685,0.276340758194785
5.37,0.624497415355905,0.0250984276916082,0.238068819090811
5.375,0.501549940264743,-0.0564143287544341,0.169111489342607
5.38,0.433103369241008,-0.100204908663271,0.156119879358621
5.385,0.290749974127121,-0.180709887612404,0.184520435922036
5.39,0.158987621476321,-0.213449327357404,0.188778238193724
5.395,0.0503476897596146,-0.232336275247619,0.149815500121112
5.4,-0.00680778495782804,-0.260446700600738,0.078399117752102
5.405,-0.0486524340089347,-0.267142575670732,0.0621415344332221
5.41,-0.0701754434292624,-0.282161857495982,0.0938562526432358
5.415,-0.0771097372301198,-0.290270640557741,0.111944845114092
5.42,-0.0654700607516626,-0.271408839364852,0.0916953988812365
5.425,-0.0541266434825697,-0.224475460114573,0.0481963308304577
5.43,-0.061577994469326,-0.188024060814376,0.0381628591955815
5.435,-0.0761994763906598,-0.149622411590219,0.0552941865523143
5.44,-0.0903944417643525,-0.118721877214768,0.0640007466819555
5.445,-0.0928595845064877,-0.108575085399636,0.0642423385794994
5.45,-0.0953247272486229,-0.0984282935845026,0.0644839304770432
5.455,-0.112965512457572,0.0492502233907384,0.0306068481452963
5.46,-0.12494227254542,0.081185587839498,0.0453535901307518
5.465,-0.131499696403288,0.0878764512685538,0.0442135972240509
5.47,-0.203523961403984,0.145049425944505,0.0378022495850505
5.475,-0.225710035171869,0.148748713581478,0.0480470658313596
5.48,-0.240843300066831,0.153949687156258,0.061100195898293
5.485,-0.269658365445301,0.151696876498428,0.0714663296893864
5.49,-0.282180738169872,0.14758584588406,0.0806090283937444
5.495,-0.286196831236179,0.147320673172851,0.0803126091886507
5.5,-0.283721290843034,0.130877029648434,0.0750359609079351
5.505,-0.280803674629269,0.105989427281544,0.102690547458447
5.51,-0.288502071755343,0.0919945434228455,0.108000597716518
5.515,-0.292731319070103,0.0864625735534274,0.109997378324173
5.52,-0.308728110408208,0.0560351027536043,0.0805242490100933
5.525,-0.294471526979573,0.0441784084794885,0.0817479582307824
5.53,-0.289262484051996,0.0448310476120682,0.0908604848584892
5.535,-0.288525092983619,0.0444178976068719,0.091724613107192
5.54,-0.287787701915242,0.0440047476016755,0.0925887413558948
5.545,-0.287050310846865,0.0435915975964791,0.0934528696045976
5.55,-0.286312919778489,0.0431784475912828,0.0943169978533004
5.555,-0.285575528710112,0.0427652975860864,0.0951811261020032
5.56,-0.284838137641735,0.0423521475808899,0.0960452543507062
5.565,-0.137210726207746,-0.122411470222705,0.090462462013456
5.57,-0.125519149500602,-0.126857754397585,0.0870992749738506
5.575,-0.101565439513712,-0.130983079721936,0.0945815837839714
5.58,-0.0861743500578329,-0.125350865596028,0.102091992342663
5.585,-0.0794506912911037,-0.113975695605433,0.0926261279154022
5.59,-0.0759358365199089,-0.100566518042883,0.0951623274689759
5.595,-0.0881290553174803,-0.0898525490486604,0.10093936000848
5.6,-0.0993858564423938,-0.0730949959887618,0.0942886112568486
5.605,-0.098333226676805,-0.0667999826828615,0.0943342791979621
5.61,-0.112892484036906,-0.0458462299579586,0.0849853173955416
5.615,-0.0293454417170429,-0.0555754245377825,0.100600069729775
5.62,0.088639344290905,-0.0504622761861069,0.136079926803883
5.625,0.143069799478408,-0.0249958415859837,0.139539496115908
5.63,0.16300792072522,-0.00639269833418119,0.144596938738409
5.635,0.207303931206693,0.178670739699173,0.0784638218357111
5.64,0.260011573405501,0.221500434948628,0.0644692964143331
5.645,0.275897079427497,0.208392964931697,0.0526037725210349
5.65,0.258489132843284,0.193641776840897,0.00377512432749068
5.655,0.287328296654477,0.177700874744842,-0.0122498668115536
5.66,0.311359917774446,0.086695614661796,-0.0300537377122653
5.665,0.38015352574995,0.00225884830696859,-0.0708170329293878
5.67,0.441546904325271,-0.0350524615393588,-0.084478668794865
5.675,0.473636599145767,-0.0806547674819126,-0.0810755943838213
5.68,0.417286695498074,-0.12796419033175,-0.0561723557285943
5.685,0.358244667278547,-0.152493002998133,-0.0435699472418361
5.69,0.28292069233792,-0.155505843041062,-0.0754999234668448
5.695,0.260078216881897,-0.163524318490429,-0.065538966564267
5.7,0.244445274941143,-0.188948654179169,-0.0151434961819742
5.705,0.211363707786305,-0.178678751397796,0.0129570872926687
5.71,0.177593073858767,-0.156321918140074,0.019026978620183
5.715,0.122705776888319,-0.133956374201336,0.00585584505861197
5.72,0.0795736045951236,-0.100441371373029,-0.00214429097924735
5.725,0.0570019414506358,-0.0650287254280459,0.000114942464637597
5.73,0.00850886458423476,0.0205572963223166,0.0300736122049779
5.735,-0.0371753881132816,0.0613382506680509,0.0325598115917939
5.74,-0.0874020493610161,0.113058694009411,0.0358679345870203
5.745,-0.105460313147829,0.149160696964644,0.0546208161334155
5.75,-0.109251507460416,0.16861719089775,0.0676569943680575
5.755,-0.0798214185326374,0.180070952770339,0.0679741654813663
5.76,-0.0455758814491626,0.192521859986734,0.0694256371092859
5.765,-0.0386054218336971,0.195339249518672,0.0705081606999601
5.77,-0.0368722686728158,0.195812055229514,0.0698109177185609
5.775,-0.0351391155119347,0.196284860940357,0.0691136747371619
5.78,-0.0334059623510537,0.196757666651199,0.0684164317557629
5.785,0.0341396153518898,0.153515841331795,0.0732408040937431
5.79,0.0505803148052971,0.133206922947665,0.0689935263839212
5.795,0.0640974302642606,0.109905751039602,0.0698830668104717
5.8,0.0670847796023613,0.0987560323660348,0.0708353524414564
5.805,0.065433845680239,0.0944630439296332,0.0651444517545658
5.81,0.0557186782874069,0.0726002713198549,0.0492850869324609
5.815,0.0300813215226721,0.0766974996123617,0.0407620660239416
5.82,0.0127343081760208,0.0836982221159537,0.0389583318039429
5.825,-0.0178181488214003,0.0774744321169536,0.0428376448912187
5.83,-0.0356837642397309,0.0681611922039644,0.0404232426009645
5.835,-0.0394667829339769,0.0610479533199192,0.0344388176296931
5.84,-0.052570533685673,0.0497192181169782,0.0370471037020297
5.845,-0.0619167192308239,0.0392682001476236,0.0347735724890515
5.85,-0.0659618182267367,0.0315155187614996,0.0341325847222338
5.855,-0.0650388779269127,0.0327657892043101,0.0328368024606742
5.86,-0.0672449832496364,0.0337708766086364,0.0318963839393577
5.865,-0.0922669218537819,0.032212542617052,0.0228574873787233
5.87,-0.0995792531010871,0.0355301435423599,0.0286089071009308
5.875,-0.112275999160896,0.0470128511564067,0.03176575799075
5.88,-0.123153473468334,0.0565446776238391,0.0306374859020583
5.885,-0.124893240720849,0.0578678106832335,0.0300270215534691
5.89,-0.1254768776474,0.0586994204256538,0.0296931450421344
5.895,-0.126060514573951,0.0595310301680743,0.0293592685307996
5.9,-0.126644151500502,0.0603626399104946,0.0290253920194649
5.905,-0.136878116166438,0.097173248619268,0.0286762981988242
5.91,-0.166341994605488,0.0810999445682618,0.0307328541769291
5.915,-0.336594408573754,-0.0130130217594072,0.0170449444682441
5.92,-0.394208169783188,-0.0959434646995317,0.0314298470174911
5.925,-0.414071804903384,-0.132336023824235,0.036868676512361
5.93,-0.437428806410031,-0.165219582476373,0.0522632914611941
5.935,-0.417572906083098,-0.186704782597527,0.0866770206528935
5.94,-0.238736704052629,-0.118224786095384,0.146900537820105
5.945,0.262602327624977,0.125387011293226,0.234625367431219
5.95,0.627373100599866,0.277748103398826,0.215991545380095
5.955,0.782543849704384,0.307522706204636,0.208725124196201
5.96,0.879018780670911,0.227204330029595,0.25690252881913
5.965,0.896476282446947,0.182166153685244,0.259490304696268
5.97,0.844680883060094,0.0877848910579736,0.219457512129351
5.975,0.74096527790114,0.0199542363510925,0.177974858637281
5.98,0.664874075118402,-0.058617567174983,0.181280712000999
5.985,0.538936856278372,-0.138742186402198,0.185503077539479
5.99,0.377371455465708,-0.174344635623119,0.159876153944353
5.995,0.24148796727325,-0.214569859480008,0.113714277381701
6,0.153602497694922,-0.240470187732431,0.0694129614841417
6.005,0.102876840982216,-0.266301786419803,0.076258508296073
6.01,0.0933656170082501,-0.27867908690004,0.0814295396220973
6.015,0.0473857611543579,-0.329536065515489,0.0961855114755699
6.02,0.042082901852085,-0.335301001536278,0.0955469729441313
6.025,0.0367800425498122,-0.341065937557067,0.0949084344126927
6.03,-0.0654970330484132,-0.22135181102025,0.057583711822503
6.035,-0.0884298969863262,-0.187655408487005,0.0698741069760663
6.04,-0.129729839396016,-0.108936847706238,0.0564941179816764
6.045,-0.140328067548677,-0.0650747708563878,0.0392130481114897
6.05,-0.155975910047838,-0.0255702531481962,0.0320126364234076
6.055,-0.207745597351419,0.0426239516351683,0.0447319582967427
6.06,-0.228540338883785,0.0760180859244189,0.0459715821689781
6.065,-0.255145012840167,0.103876757889181,0.0418588572778439
6.07,-0.29334256525826,0.138725562158451,0.044190440248822
6.075,-0.310348169021748,0.154623904528996,0.0495594248559794
6.08,-0.351338180172987,0.162236949089096,0.0702196430484225
6.085,-0.352416010103204,0.152377361204951,0.0770296714587651
6.09,-0.358291027500709,0.145640890314294,0.0751331148313806
6.095,-0.373948731252402,0.140150759134985,0.0857268319173249
6.1,-0.377858451537691,0.121970482502557,0.0884072691348435
6.105,-0.372112817432662,0.109797432099971,0.0904343984310284
6.11,-0.354388852195293,0.079871971330809,0.109552994657217
6.115,-0.34872792756889,0.0717480816481111,0.112182596638577
6.12,-0.339305229407553,0.0454164767149176,0.0983097733766715
6.125,-0.321318762657003,0.0251401491304991,0.0937188257761316
6.13,-0.315396813241314,0.0215200263085513,0.0946026330532648
6.135,-0.265219503329804,0.0137415695926278,0.120354356021535
6.14,-0.204291711414587,-0.011894664315381,0.130119795676806
6.145,-0.159825373903358,-0.0401759723060718,0.123971050968131
6.15,-0.130053087148313,-0.0744309805693164,0.125980278045156
6.155,-0.119555265646052,-0.0917828363387554,0.131656420568434
6.16,-0.115475141213277,-0.114874964728535,0.132533178607325
6.165,-0.120449482953714,-0.118087061991794,0.108933855550173
6.17,-0.107985799137421,-0.117239804239493,0.0979538844638525
6.175,-0.0952604844748705,-0.106755541893473,0.102548530656916
6.18,-0.0928167364534893,-0.0946688290185531,0.118596690865582
6.185,-0.0931192847327877,-0.0871548725563091,0.11700036422136
6.19,-0.101234565134803,-0.0679090536141987,0.103098404260305
6.195,-0.110278462187459,-0.0571609841363762,0.106812293463265
6.2,-0.116857537935863,-0.058656310972432,0.118398818706219
6.205,-0.116051164105718,-0.0557854664900508,0.126528550248916
6.21,-0.116798687415283,-0.0448394813224334,0.11489352208237
6.215,-0.102036288681848,-0.0393724922161683,0.115304549789813
6.22,0.011634330072897,-0.0492872219638168,0.161411446965925
6.225,0.108677740933736,-0.0421968219619939,0.172358066762283
6.23,0.129057584368716,-0.0375834728239282,0.175598901385001
6.235,0.149437427803695,-0.0329701236858626,0.178839736007719
6.24,0.468005147391258,0.0716396010426612,0.0966826049857406
6.245,0.544905985047868,0.0714368586029164,0.0778263642171763
6.25,0.5496273127685,0.0648829738680457,0.0799548165337806
6.255,0.554348640489131,0.058329089133175,0.082083268850385
6.26,0.320751717390001,-0.267953613144197,0.00492221152489875
6.265,0.328071173600841,-0.319692419493581,0.014436027335098
6.27,0.388770936771263,-0.321648661716221,0.0217900383703359
6.275,0.410174386266974,-0.306952322546735,0.00515977675914117
6.28,0.347853390099391,-0.294754683456092,-0.0294275071756043
6.285,0.281478517838266,-0.246902911865034,-0.0383123986554546
6.29,0.22286094715432,-0.207514044218391,-0.0323465961658755
6.295,0.162543285152259,-0.194297276297014,-0.00109453915603231
6.3,0.124282056203712,-0.178017863203345,0.0126925445828343
6.305,0.0746796951158622,-0.13715570186475,0.00921609013170907
6.31,0.0308981374659941,-0.0867969643286832,0.0132135496414494
6.315,0.00151126752251467,-0.0191106178491505,0.0108676440942694
6.32,0.00339917506399042,0.0575681118719248,-0.00168068970029709
6.325,0.0210643848033277,0.115609976305891,-0.0102276706700397
6.33,0.0076598255750772,0.158939313667217,-0.00238887619305866
6.335,-0.0333919497946084,0.205308992437063,0.00422024699559303
6.34,-0.0419245317098963,0.215994483988313,0.0100336174013302
6.345,-0.058085270960813,0.255675824600719,0.0304719244396652
6.35,-0.0105549654349974,0.255769730277684,0.0295548283745759
6.355,0.0450852689249408,0.256023441495887,0.025190425999302
6.36,0.0702115562085912,0.254566464392765,0.0257691677618836
6.365,0.127778237518546,0.245685246538975,0.0317006632128134
6.37,0.145607548432375,0.22853316074368,0.0204425266696952
6.375,0.140650657559144,0.211271947454991,0.0172724468327461
6.38,0.132510202685556,0.199115886419794,0.0276495516553226
6.385,0.12009126724252,0.184946273732652,0.0252849072419803
6.39,0.118595804644608,0.180626800462074,0.0240819339579702
6.395,0.117100342046695,0.176307327191498,0.0228789606739603
6.4,0.0692639343122159,0.115094618595532,0.0212082307839087
6.405,0.037763266794097,0.0996391157373465,0.0181743114848935
6.41,0.0334488607484727,0.0982432558027467,0.0181643982958558
6.415,-0.0298786998550707,0.0890736399497533,0.0189396018858896
6.42,-0.0610796217347945,0.0790924410215046,0.0163629102396571
6.425,-0.0877444007596515,0.0654915831118312,0.00700326367936741
6.43,-0.107254023586598,0.0530301803176979,-0.00561619647694239
6.435,-0.133265828097747,0.0329572703968456,-8.40209120365572e-05
6.44,-0.165892716745769,0.0216912840824174,-0.000972103521797592
6.445,-0.193421453819239,0.0121079861474515,-0.00475414254939735
6.45,-0.2006712834401,0.00817045518216412,-0.00688057528943012
6.455,-0.206730751722851,-0.00380410462606415,-0.018092337164639
6.46,-0.201511281005844,0.00236683398276673,-0.0276934228371099
6.465,-0.21209994629257,0.00194296536234625,-0.0290202984374674
6.47,-0.223431471150002,-0.00270495636381991,-0.0287813014797547
6.475,-0.202243968525203,-0.000547327026806278,-0.0206043299747271
6.48,-0.177542210065336,0.010909268369226,-0.0182748562774771
6.485,-0.160627451391277,0.0267658333419049,-0.0193996606049081
6.49,-0.150201183950787,0.0487991127656218,-0.0234416258616952
6.495,-0.14363112486772,0.0778426229110468,-0.0352857782969756
6.5,-0.137449371767085,0.103342884940927,-0.0525817177463119
6.505,-0.146989541443647,0.107563933740555,-0.0393386411349963
6.51,-0.209265328368359,0.0814650424170919,-0.0251092380128178
6.515,-0.276938130738528,0.0525927647503919,-0.030180837099313
6.52,-0.31614556513139,0.0400435611571564,-0.0414052015978404
6.525,-0.448548868813675,-0.014732341741444,-0.0331998560341393
6.53,-0.533237247104931,-0.0251720768777103,-0.0189905846656698
6.535,-0.438946911113569,0.00809227623326573,0.0324760143391824
6.54,-0.34471862463257,0.0413876056244773,0.0524265262785878
6.545,0.129960094114822,0.254624000434542,0.0961361391848056
6.55,0.471047223763749,0.406126312251866,0.117623784880059
6.555,0.677552277304301,0.475959972075966,0.146206010311922
6.56,0.783699549742034,0.440148784263056,0.174485417859862
6.565,0.81448131527206,0.386674047737382,0.161094351625675
6.57,0.728874631824579,0.283954365640703,0.0787665705083599
6.575,0.564721365977757,0.188699396258692,0.0236956376123928
6.58,0.395228858454421,0.0912787846099314,0.02892514671152
6.585,0.253522313244611,-0.015940639941459,0.071179414685872
6.59,0.11113585358959,-0.0911426960647286,0.0574465748240814
6.595,0.0373940515758455,-0.141007695094043,0.00273481203296012
6.6,0.0213781554607692,-0.158566284934053,-0.0349137717753331
6.605,0.064736394109234,-0.201458528361673,-0.0959438191651647
6.61,0.0926123528863468,-0.22241256356027,-0.0797257149106987
6.615,0.0988602573059961,-0.229661301465892,-0.0481516848065198
6.62,0.121321697273257,-0.224342285027504,-0.0546747771650565
6.625,0.142895157146524,-0.208830750772828,-0.0909965557153691
6.63,0.152847698214801,-0.184875074162867,-0.0881084252560033
6.635,0.16417822502447,-0.16023217637092,-0.0551686175482513
6.64,0.171442336625227,-0.134659147320128,-0.0349865680385766
6.645,0.179914154085179,-0.106142235606907,-0.0325956450674886
6.65,0.173627549009863,-0.07259619668879,-0.0419166595509801
6.655,0.151149744969925,-0.0510078063109789,-0.0327773466868267
6.66,0.0734050274550878,-0.0303574510020961,-0.0102648565549569
6.665,0.00657964392647376,-0.0177241416400447,0.00292041024483941
6.67,-0.0658668605317873,-0.00263400309540644,0.00744061470132808
6.675,-0.123937718764481,0.0200482509578299,0.0134913960197637
6.68,-0.18348912808593,0.0258761801244994,0.0343278383114074
6.685,-0.233040577527265,0.0259712469511533,0.0526322380977397
6.69,-0.241142082817013,0.0283289873332297,0.0526800697191662
6.695,-0.24924358810676,0.0306867277153061,0.0527279013405928
6.7,-0.363681339214778,0.0833763449535067,0.0592546816795035
6.705,-0.400977939088743,0.0871569127637501,0.074552607778605
6.71,-0.417095582445288,0.0866645018857426,0.0808361006895793
6.715,-0.429394814240764,0.0791890852314122,0.0852510861810184
6.72,-0.429539693342145,0.0775515414357369,0.0846452745137002
6.725,-0.438490784239217,0.0826340823107007,0.0846888847198612
6.73,-0.447160996889479,0.0878860014733608,0.0874389771326388
6.735,-0.45567465458697,0.0929508991810192,0.09003141485874
6.74,-0.38851983954963,0.107581521581905,0.109795863045181
6.745,-0.341262934084759,0.0878152600495223,0.1110768045337
6.75,-0.296636484266193,0.0478261723928933,0.120787216722838
6.755,-0.288991946510744,0.0174242644338816,0.107305297102331
6.76,-0.288503103375473,0.00602537189293815,0.105054372328763
6.765,-0.290458645474666,-0.000261054361388093,0.105231370598659
6.77,-0.260328293411749,-0.0357649652167676,0.0962681767289259
6.775,-0.242313396811887,-0.0473202486955439,0.102565797389158
6.78,-0.215866497266283,-0.0513068272124506,0.09884414440037
6.785,-0.197932266225718,-0.0541276008369715,0.08524879863534
6.79,-0.165250742851438,-0.0577811939638868,0.0763825955818565
6.795,-0.132305885148544,-0.0618246605201647,0.0973385511475901
6.8,-0.115318758032587,-0.0625191254891991,0.108552479860982
6.805,-0.104223425518646,-0.061155881976882,0.101008471302558
6.81,-0.103628084568784,-0.0579612348940627,0.0952609061668005
6.815,-0.0802752047319852,-0.0325405391293113,0.0912470334444059
6.82,-0.0619750227745062,-0.0358917747813484,0.0959562913862341
6.825,0.161446739520671,-0.084023271509573,0.170815313323046
6.83,0.220061675729879,-0.0529183065421306,0.168612486011588
6.835,0.28463424663959,-0.000966783299278851,0.120974192911674
6.84,0.316715664536662,0.0522132313767431,0.0970470679504694
6.845,0.349115512544983,0.0969281450711551,0.0941133853152231
6.85,0.277356904481471,0.0932916946103925,0.0598470814338873
6.855,0.20867228774996,-0.00806230129344905,0.046509423936946
6.86,0.119649229268152,-0.24795042906617,0.0446138778100702
6.865,0.101824497034853,-0.288123301375292,0.0463290701400182
6.87,0.151287669607121,-0.322297911367766,0.062000332892502
6.875,0.17808511913753,-0.328990114547864,0.0210650964016317
6.88,0.167031045054242,-0.330114620821278,0.00404309835314197
6.885,0.155083666958533,-0.331490345787607,-0.0120452672257313
6.89,0.0840562511333655,-0.291535584952502,-0.00130742180688255
6.895,0.0978457565926862,-0.285279957401925,-0.000432110054334022
6.9,0.131501186959513,-0.288014821749276,0.0365051999700463
6.905,0.151918474021648,-0.241141460924522,0.0538762681218455
6.91,0.148448823158934,-0.200891299878201,0.0556185042787334
6.915,0.133953065725741,-0.173673531887801,0.0577302483944064
6.92,0.101415737640661,-0.0914168547852197,0.0460619442644046
6.925,0.0956118403573616,0.00898474090518559,0.0359615994666347
6.93,0.091380679771841,0.0375759360824907,0.0349994951970928
6.935,0.0891329398827687,0.0433654364353284,0.0370392246543313
6.94,0.0868851999936968,0.049154936788165,0.0390789541115693
6.945,0.0830039355040251,0.0601050505966033,0.04214033430968
6.95,0.0583388341422678,0.215201226250676,0.0785595511750533
6.955,0.0960986493349727,0.215748581592247,0.0868349034280477
6.96,0.123074268146242,0.215654437170799,0.0947182293986542
6.965,0.151740326261921,0.207287299905764,0.0991265623199884
6.97,0.17045171048574,0.194232381471716,0.0983059318814908
6.975,0.167167136498595,0.17855215123245,0.0833009445656921
6.98,0.162377021988248,0.16613496586096,0.0768658267652792
6.985,0.159525992732338,0.162866866811371,0.0754378645295909
6.99,0.156674963476427,0.159598767761783,0.0740099022939027
6.995,0.125655930143139,0.0929720540732035,0.057680342121005
7,0.108022746046502,0.0685772433268079,0.0505329883236951
7.005,0.0875947841644829,0.0463167531362698,0.0401524745286248
7.01,0.0830638898973922,0.040698195370135,0.0387083516142537
7.015,0.0778176739076351,0.0376633735807367,0.0395466873745371
7.02,0.0725714579178789,0.0346285517913389,0.0403850231348203
7.025,-0.00251565637334873,-0.0261381702075521,0.0231760621442911
7.03,-0.0329046534219647,-0.0403654963632915,0.0179453399485714
7.035,-0.0453380705503617,-0.044069235979653,0.0146571566901436
7.04,-0.0823035405625448,-0.0604844030867664,0.0191230143892261
7.045,-0.105612067199429,-0.0817506218028191,0.0115689508907529
7.05,-0.106425484471191,-0.0838104405598969,0.00480630752229113
7.055,-0.116729244782828,-0.0853495879342414,-0.00705313477532019
7.06,-0.138438491029163,-0.0845315246756213,-0.0197400207679815
7.065,-0.148059648453611,-0.0723183480039009,-0.0195200678178241
7.07,-0.151214044588206,-0.0690695803029296,-0.0165566750388785
7.075,-0.152203156378909,-0.0678854163907434,-0.0169681327045746
7.08,-0.153192268169611,-0.0667012524785571,-0.0173795903702707
7.085,-0.154181379960313,-0.0655170885663709,-0.0177910480359668
7.09,-0.147297387618338,0.00331869964513207,-0.0261427701523209
7.095,-0.111990599415969,0.0369640021468491,-0.0239630282035884
7.1,-0.0893239404801666,0.0621278672335558,-0.0309097598181658
7.105,-0.094488947399673,0.0832653906929665,-0.0307635574808163
7.11,-0.123249648524027,0.06277020223161,-0.0117828603791087
7.115,-0.146964635875974,0.0564309532984202,-0.0085865942883028
7.12,-0.364815316895878,-0.0232759221629753,-0.0747710045594797
7.125,-0.425181365889722,-0.0471757750862423,-0.0715962271187954
7.13,-0.451900786631793,-0.0424239383274986,-0.0725456464764307
7.135,-0.454856169313116,-0.0317383285552375,-0.0701520868361644
7.14,-0.356924580181697,0.00201257235852476,-0.0638553917051055
7.145,-0.160075941483596,0.139768607668654,-0.0349286363817436
7.15,-0.00367259496071109,0.24415567326643,-0.000240120213306536
7.155,0.0306200783719448,0.264258119356022,0.00415072503264375
7.16,0.0649127517046006,0.284360565445613,0.00854157027859403
7.165,0.406683242383306,0.477975581981989,0.0811459723836829
7.17,0.403375001053561,0.471309555007862,0.0716169026106847
7.175,0.32551357019884,0.329433540944225,-0.0257971810930638
7.18,0.216679025897949,0.229138486315948,-0.0400270836635006
7.185,0.0897812322867448,0.144617280412586,0.0144243465759197
7.19,-0.00810720472130312,0.0706649694024857,0.0557042781477316
7.195,-0.0259642893188894,0.00593646580877457,0.0152906592845564
7.2,-0.0315369508440566,-0.0229453207585149,-0.0235660564244271
7.205,-0.0287506352843723,-0.0309339343058314,-0.0317817399863143
7.21,-0.0259643197246881,-0.0389225478531478,-0.0399974235482015
7.215,0.109732243184797,-0.208416514878043,-0.0163488436303282
7.22,0.144602714339974,-0.203274862944587,-0.0247928167244829
7.225,0.150602323397451,-0.201122578749817,-0.0287935491221569
7.23,0.156601932454926,-0.198970294555047,-0.0327942815198303
7.235,0.162601541512401,-0.196818010360277,-0.0367950139175036
7.24,0.168601150569877,-0.194665726165507,-0.040795746315177
7.245,0.206724811000216,-0.0476246885624968,-0.0189888035576616
7.25,0.181705137861038,-0.0247212733234748,-0.0345146980584863
7.255,0.131175431427297,-0.0143143771054974,-0.0228355450750521
7.26,0.0819794185318563,-0.00868167346730223,0.00108831205747101
7.265,0.00265702784089999,0.00888025536374022,0.00881447169202794
7.27,-0.0597552441762508,0.0195693312702383,0.00982021093382624
7.275,-0.157528626700584,0.0378079881025567,0.0231009203409278
7.28,-0.199965276686743,0.05080075773422,0.0413683652206501
7.285,-0.204879936018663,0.0521087450420143,0.0421609672885185
7.29,-0.209794595350582,0.0534167323498085,0.042953569356387
7.295,-0.214709254682501,0.0547247196576028,0.0437461714242555
7.3,-0.219623914014421,0.056032706965397,0.044538773492124
7.305,-0.305451996989255,0.112519499615383,0.0724808552305175
7.31,-0.307272168717546,0.120755365334704,0.0720769000112791
7.315,-0.308257741436074,0.121321922409784,0.0715828715229324
7.32,-0.22991322779443,0.157841001535363,0.0867477826421195
7.325,-0.173749240678557,0.183713439255113,0.107842809024271
7.33,-0.172242479020004,0.198209188224871,0.107359304618907
7.335,-0.177620956398758,0.214412990872735,0.101370218275503
7.34,-0.173676437364088,0.213770505601944,0.0952467181055504
7.345,-0.155827750142652,0.166803301653204,0.110861752347921
7.35,-0.14583193984887,0.123616328493974,0.11532314878607
7.355,-0.128948386069872,0.0878273269031403,0.0984679068080815
7.36,-0.128834266398075,0.0697219704567378,0.0829070885103319
7.365,-0.134961178139062,0.0667591386764639,0.0902892644913998
7.37,-0.136828758073739,0.0610847456638855,0.0914194915739752
7.375,-0.137387409293891,0.0594052256702234,0.0783023597493994
7.38,-0.137313787217865,0.0634877247470624,0.0645251189147099
7.385,-0.136095874680732,0.0709988764619654,0.0593288360191612
7.39,-0.136520261963808,0.0761263031994208,0.0520530592473063
7.395,-0.133538840211488,0.0764574617468869,0.0523076943293905
7.4,-0.104965108619761,0.0916855825458911,0.0538727369845971
7.405,-0.110789098538185,0.113013970946657,0.0400756917595437
7.41,-0.0535972492770891,0.112755577669618,0.0308992953685539
7.415,0.0995409675263166,0.040918957971067,0.0445092805849343
7.42,0.249961139577544,-0.0315965393092304,0.0702211276447583
7.425,0.257964946863645,-0.0352920745393962,0.071422261497648
7.43,0.265968754149745,-0.0389876097695621,0.0726233953505377
7.435,0.273972561435847,-0.0426831449997287,0.0738245292034276
7.44,0.281976368721947,-0.0463786802298946,0.0750256630563172
7.445,0.289980176008047,-0.0500742154600604,0.0762267969092069
7.45,0.297983983294147,-0.0537697506902263,0.0774279307620966
7.455,0.305987790580248,-0.0574652859203922,0.0786290646149863
7.46,0.313991597866348,-0.0611608211505581,0.079830198467876
7.465,-0.169507542110679,-0.195461697865892,-0.0159138374272805
7.47,-0.223866867164719,-0.22249717888057,-0.0355637588778479
7.475,-0.26509123021362,-0.240820493508521,-0.128237995030599
7.48,-0.292130284716388,-0.279859921897058,-0.158874505089778
7.485,-0.296050789888201,-0.282058455581635,-0.135331565243577
7.49,-0.218579798197498,-0.309029883419106,-0.0703807979179384
7.495,-0.113968503765119,-0.350290018719434,-0.0689343719057224
7.5,-0.003336220118929,-0.367661292358892,-0.049804270927087
7.505,0.0342299641144315,-0.363827943358227,-0.0450424291358049
7.51,0.25373807255047,-0.351988364184109,-0.0340060760166411
7.515,0.292740566554426,-0.334635329736298,-0.0163566456803483
7.52,0.314873179701773,-0.270216070409977,0.0095693421470546
7.525,0.314013817583604,-0.265755004366923,0.0108590097077423
7.53,0.313154455465434,-0.261293938323869,0.01214867726843
7.535,0.312295093347265,-0.256832872280816,0.0134383448291177
7.54,0.311435731229096,-0.252371806237762,0.0147280123898054
7.545,0.310576369110926,-0.247910740194708,0.0160176799504931
7.55,0.309717006992757,-0.243449674151654,0.0173073475111808
7.555,0.101051030683055,0.12471126975168,0.0719454538161308
7.56,0.0738321160196186,0.167644073818402,0.0748235951108093
7.565,0.0274483345521303,0.19900336385574,0.0773776542426195
7.57,-0.0151492005830942,0.200143780785652,0.0821831276827691
7.575,-0.0335136978440514,0.198203085419343,0.0926824795041383
7.58,-0.0213549133913599,0.193570601939399,0.0881330300916519
7.585,-0.0218480106749634,0.192405261597589,0.0874430502679406
7.59,-0.0223411079585668,0.191239921255779,0.0867530704442292
7.595,-0.0228342052421703,0.190074580913969,0.0860630906205179
7.6,-0.0233273025257739,0.188909240572159,0.0853731107968064
7.605,0.0134562052320047,0.0637321055618752,0.0728274825847085
7.61,0.00311504266147202,0.0394086773069434,0.0654720645054811
7.615,-0.0135170692857887,0.0191215838811967,0.0722206943881162
7.62,-0.0138625350082742,-0.0124015059117045,0.073950106943147
7.625,-0.0140248746810456,-0.0188670144175829,0.0724234385973505
7.63,-0.0139835891024334,-0.0244981846100268,0.0707410175285496
7.635,-0.0139423035238212,-0.0301293548024707,0.0690585964597488
7.64,-0.0458284499704531,-0.11963751759693,0.0761261784973021
7.645,-0.0677562371888502,-0.150902799880476,0.0637909364112971
7.65,-0.0717668270774188,-0.160136632066698,0.0499370116894911
7.655,-0.103509660369145,-0.164316784760878,0.0384483294897145
7.66,-0.122918337470679,-0.172387119465418,0.0359313440098629
7.665,-0.126293281506128,-0.16437874701075,0.036911550025159
7.67,-0.125125830947754,-0.140413063781028,0.0366859762980181
7.675,-0.110047633709896,-0.124847057727307,0.037433895119463
7.68,-0.105624179654389,-0.112019516706843,0.0385393796385293
7.685,-0.103180088788568,-0.096367420149342,0.0336072409432674
7.69,-0.0855255615712356,-0.0693716166941951,0.0384610585258103
7.695,-0.0593023705475602,-0.0438418596888445,0.0353593748409866
7.7,-0.0388787076687922,-0.0217600312976311,0.0164843645200912
7.705,-0.0194140355918353,0.00466910986695182,0.00888675450309366
7.71,-0.0309347175774707,0.00624660737217419,0.00985657986989094
7.715,-0.209741907068362,-0.0418354083310251,-0.0106727425161067
7.72,-0.381672706299748,-0.0845816856367148,-0.054881855787195
7.725,-0.507163837378595,-0.129895549250814,-0.0731375978828935
7.73,-0.548923292683336,-0.13817195971281,-0.0925123857195964
7.735,-0.469108734210263,-0.0973715929672323,-0.108320458944214
7.74,-0.2321677087074,0.0630006853034821,-0.0886506395136303
7.745,-0.0215602873293601,0.258965471440307,-0.0328827346215741
7.75,0.205355880332482,0.558563830698447,0.0208698774358923
7.755,0.245465721381855,0.672431743461933,0.0214389496401978
7.76,0.27849501433546,0.624708232513471,0.0647109033054359
7.765,0.311962992595334,0.616531088451304,0.0712935588320219
7.77,0.309739312998376,0.607997570882839,0.0809923042227793
7.775,0.161764452325332,0.481106716487201,0.0249516687107724
7.78,0.117214665936135,0.36032924813773,0.0358888937444959
7.785,0.0579381120140928,0.294949582021675,0.0842298207577342
7.79,-0.00770798868168075,0.250107600240127,0.0909217457280673
7.795,-0.0327550826119975,0.204652631835305,0.0574457025851697
7.8,0.014380799001756,0.129620655606782,-0.00743885582111287
7.805,0.0237734278267739,0.10473374838681,-0.0230394521598699
7.81,0.0387108843314388,0.0368481615702108,-0.0117035516683632
7.815,0.04363240638153,-0.00356206219684556,-0.0053649264930393
7.82,0.0668004052372501,-0.0254290745502194,-0.0377580889593718
7.825,0.0599550614020059,-0.00787427116552163,-0.0622582885454357
7.83,0.0621580394845572,-0.00475747975384853,-0.0693668539806749
7.835,0.0631554558369885,-0.00108526857041256,-0.0698635973066917
7.84,0.0641528721894198,0.00258694261302341,-0.0703603406327085
7.845,0.103555867020865,0.0497840086599337,-0.063773144134752
7.85,0.113708070692081,0.0570391306682244,-0.0644091066628726
7.855,0.10078461017385,0.0666115559618629,-0.0670185579953261
7.86,0.0777914454660939,0.0834671706639562,-0.0587957358333934
7.865,0.0526160630276868,0.0899785149462138,-0.0646107235622266
7.87,0.0261163673671106,0.0890717005643892,-0.0599520616843013
7.875,0.00200978070860929,0.0965513847087036,-0.0484847912013565
7.88,-0.0173713577467162,0.105571787129314,-0.0432710492463465
7.885,-0.0374053106884515,0.108438871084743,-0.032662674319582
7.89,-0.0561499332480947,0.106557204205667,-0.0306755897143679
7.895,-0.0642930417045882,0.109435053680366,-0.0358810109851892
7.9,-0.0625810082009761,0.120984914050614,-0.0483954856769206
7.905,-0.0559840703168653,0.127465992427456,-0.0376449353095192
7.91,-0.0478885589005478,0.140483745512241,-0.0269245993100266
7.915,-0.0124225868938635,0.174202418140628,-0.0234502675071657
7.92,0.0146806347664894,0.186918474160964,-0.0125763823877493
7.925,0.0387279199931964,0.197010098880241,-0.0012400444101161
7.93,0.0393721491491214,0.220358750290165,0.0113381811824658
7.935,0.0364340597212262,0.224734689368324,0.00709217544050616
7.94,0.0334959702933311,0.229110628446483,0.00284616969854655
7.945,-0.0536761210459965,0.231971650760473,-0.0214820489424867
7.95,-0.0492037446569541,0.217105041155501,-0.0113954265295664
7.955,-0.0397615459832477,0.207751527487604,-0.00291444269828944
7.96,-0.0341044387014293,0.196249569819187,-0.0126795261131442
7.965,-0.0297398041121619,0.202403666163298,-0.0252849933678511
7.97,-0.037054728088937,0.210882145437518,-0.0247225800762302
7.975,-0.0386437015459283,0.209820972697929,-0.0256763874002446
7.98,-0.0402326750029193,0.208759799958341,-0.0266301947242589
7.985,-0.0328271094568533,0.209410729588854,-0.043228640483385
7.99,-0.0328167708364281,0.209411018064911,-0.0438042980678421
7.995,-0.0219478876440176,0.208537557758288,-0.046201763526258
8,0.00343167297986636,0.222190300324992,-0.0580776190151569
8.005,0.0100046590529552,0.220944091802772,-0.058754711826346
8.01,0.0165776451260418,0.219697883280553,-0.0594318046375349
8.015,0.0231506311991307,0.218451674758333,-0.0601088974487241
8.02,0.0297236172722172,0.217205466236114,-0.060785990259913
8.025,0.0362966033453061,0.215959257713895,-0.0614630830711021
8.03,0.417625823411776,-0.199741401841754,-0.0463627256997185
8.035,0.326595544397024,-0.262639487901865,-0.0792676225103059
8.04,0.208578032931531,-0.234918943997965,-0.102093085656505
8.045,0.127260970269807,-0.0818150104374048,-0.156565108900691
8.05,-0.166797471026812,0.03363530702869,-0.251223398179783
8.055,-0.369323267913774,-0.110235987543645,-0.277982967057211
8.06,-0.323714197804276,-0.320826259919762,-0.211234032814813
8.065,-0.330636888365345,-0.411640265740997,-0.18089312211353
8.07,-0.46633879192739,-0.41518645281657,-0.223415138961721
8.075,-0.543175946691465,-0.454711595768772,-0.30521354743591
8.08,-0.564912938534293,-0.428047914716608,-0.368290533681192
8.085,-0.580223883371227,-0.389774693406253,-0.331410934593693
8.09,-0.607561781920279,-0.449489669403485,-0.310513831876954
8.095,-0.573704214948966,-0.463865757400621,-0.346208105513019
8.1,-0.440432739444401,-0.460271504936586,-0.409939800073188
8.105,-0.426527238635856,-0.459396240396371,-0.416330272284256
8.11,-0.412621737827315,-0.458520975856155,-0.422720744495323
8.115,-0.398716237018769,-0.457645711315939,-0.429111216706392
8.12,-0.384810736210224,-0.456770446775724,-0.435501688917461
8.125,-0.0242219540037558,-0.288591706931103,-0.440162925011015
8.13,-0.00372693843954026,-0.252866897611451,-0.444823655017925
8.135,0.00545940049854253,-0.241600437982281,-0.44733516919104
8.14,0.0519905114444331,-0.109273226302368,-0.435766556042477
8.145,0.046119245002171,-0.0375462814445969,-0.457106078414098
8.15,0.0343031028338759,0.0138257759073603,-0.486774409659214
8.155,0.0522256171362687,0.0666297341389309,-0.499338482449923
8.16,0.0708684029581248,0.0983001186146774,-0.493116547052764
8.165,0.076105025248341,0.137262221209157,-0.486027107927707
8.17,0.074050982673876,0.147908065368803,-0.497849978752377
8.175,0.0752922452136085,0.144791423895182,-0.509113591871708
8.18,0.0723499099979824,0.138092987460666,-0.514041341433659
8.185,0.0720732045337592,0.136099333893087,-0.512632644829427
8.19,0.0717964990695361,0.134105680325509,-0.511223948225196
8.195,0.0715197936053129,0.13211202675793,-0.509815251620965
8.2,0.113063397253801,0.0312505072368451,-0.527917888081717
8.205,0.129447828151943,0.0100216275515121,-0.536853018203518
8.21,0.115127267459149,-0.000722607116946782,-0.544484856004964
8.215,0.0949842013149447,-0.0132041821855792,-0.54422385410727
8.22,0.0598327331254065,-0.0437886304238281,-0.551684294661075
8.225,0.0438189003330435,-0.0783081927444296,-0.570163764413065
8.23,0.0329682146159593,-0.103318479739241,-0.59029972062869
8.235,0.0235197294754662,-0.111739166768217,-0.587052496556748
8.24,-0.0162945473397194,-0.1330644855934,-0.571104357795967
8.245,-0.0244154130627564,-0.14422354888875,-0.571035810253746
8.25,-0.0164293107916008,-0.147263687359058,-0.579998610669676
8.255,-0.0277761562279544,-0.147259923854199,-0.588576857861397
8.26,-0.0325367879039333,-0.147442931228662,-0.588827295007404
8.265,-0.0381134747312075,-0.135861865139205,-0.576920779928598
8.27,-0.0216556214576046,-0.107963351920068,-0.56430821369234
8.275,-0.0184661222417593,-0.0973604858433628,-0.559494299606217
8.28,-0.00892923295491562,-0.0637135426764017,-0.558237521919106
8.285,0.00108799101164581,-0.0409018637511436,-0.552551139924826
8.29,0.0159149171942873,-0.0176498579717459,-0.54769054788655
8.295,0.0498357583198069,0.00754526680006296,-0.549419896478045
8.3,0.0866720476410462,0.0268577435093728,-0.547184033157849
8.305,0.0969634286078076,0.0333405455522982,-0.543247820012334
8.31,0.0989874452992102,0.0623056603046074,-0.524666639257631
8.315,-0.0755472774269694,0.00243019231707408,-0.542270614529531
8.32,-0.269421210231381,-0.0391475889364964,-0.582304704255598
8.325,-0.356656052850747,-0.0698267136967955,-0.602283796071482
8.33,-0.389571983253682,-0.0793900804550387,-0.605008851016537
8.335,-0.416798634939722,-0.111063567546259,-0.613391087943238
8.34,-0.264363766113226,-0.0252085950693745,-0.642248639756518
8.345,-0.161453461358415,0.0859103682737181,-0.643925645752546
8.35,0.000866394573903411,0.323075661366377,-0.603417910258922
8.355,0.0540839086647259,0.511186798375809,-0.538104734881814
8.36,0.0129303023901749,0.522740624578682,-0.549867829112439
8.365,-0.026475540223605,0.514694782417985,-0.62940462772057
8.37,-0.133631872960073,0.46891145554421,-0.634630573282071
8.375,-0.161334932632799,0.347042361277105,-0.526587045570185
8.38,-0.129825625608899,0.217919297020977,-0.496264023512194
8.385,-0.0400458000322483,0.18628091294261,-0.537742078644572
8.39,0.0598061417695141,0.167586709010486,-0.547108553948211
8.395,0.0912560195900214,0.118378379297927,-0.58153519861701
8.4,0.105670094412803,0.0820036004381357,-0.562547398264814
8.405,0.09807902019347,0.0155524167280311,-0.529304110717177
8.41,0.108959006631886,-0.0465367189649663,-0.502303077067382
8.415,0.126447734854585,-0.0176965070861845,-0.478162560708675
8.42,0.158096791572858,0.0427360434813423,-0.467638802669632
8.425,0.183981756888955,0.0785993614915201,-0.452328606251969
8.43,0.249622227352821,0.14192059289732,-0.388085355735689
8.435,0.255457938557967,0.151391892728724,-0.374745691271641
8.44,0.302928416257139,0.225097391270285,-0.332059308032165
8.445,0.308399319306097,0.240521637898935,-0.33516675778851
8.45,0.264379611398822,0.274624840681111,-0.324494718443199
8.455,0.218409250921669,0.291421791509495,-0.298282705350806
8.46,0.17030278522615,0.304706015791834,-0.265854032240552
8.465,0.123585905896741,0.31591958563358,-0.235310562400165
8.47,0.114241726749628,0.318180901121615,-0.223668670132141
8.475,0.111977035187086,0.317743881628753,-0.212732681025773
8.48,0.116462791498383,0.308765751866547,-0.184684378010161
8.485,0.108075124087883,0.303381199293798,-0.180237103681101
8.49,0.0972103073150253,0.301768489753681,-0.175354020607551
8.495,0.0981021546884105,0.3020267322546,-0.170461237042207
8.5,0.100139269573469,0.302743091434511,-0.16815114619279
8.505,0.103939817747464,0.288675616368639,-0.152947037376971
8.51,0.142748401884904,0.307466272133441,-0.133884534628018
8.515,0.150373183658337,0.312506188726194,-0.121911144718387
8.52,0.159412930383171,0.314537821404913,-0.118998518835162
8.525,0.167720829675977,0.294802935565907,-0.113013694047687
8.53,0.12661120341227,0.260397261190796,-0.111323107731125
8.535,0.112642623667616,0.238102865999192,-0.110716062057562
8.54,0.102484997528377,0.222884356392692,-0.120236475058397
8.545,0.0857576149151376,0.200717124309117,-0.115637215341457
8.55,0.0875803650918059,0.207754438504381,-0.112246073322298
8.555,0.0945084564174104,0.217770508223584,-0.105983900692036
8.56,0.0915622149895628,0.21951770809817,-0.103972701024248
8.565,0.0253080941169657,0.212622940027173,-0.113378087642614
8.57,0.0124004196056033,0.207984722870892,-0.1198724517206
8.575,0.0126843389328231,0.198970193905391,-0.11095503460269
8.58,0.011727898055306,0.196183080776418,-0.108955873952649
8.585,0.0258622861558226,0.193603159291595,-0.106372598581503
8.59,0.0347304706059538,0.216346528811018,-0.111107040432763
8.595,0.0456335787029614,0.230944867847427,-0.105843108831666
8.6,0.109226590339688,0.213393343172273,-0.10104999583278
8.605,0.186050573107527,0.173139373355619,-0.0965044797153852
8.61,0.448490934512555,0.0641655320634197,-0.0569701734868805
8.615,0.462500990764365,-0.00131994783362634,-0.0569612143211932
8.62,0.413826380310536,-0.0659685277960465,-0.076050957981242
8.625,0.335146496251471,-0.120448912054436,-0.0902728757917061
8.63,0.260497945599056,-0.154122082971842,-0.116145876244501
8.635,0.200563194135586,-0.182840193864194,-0.140938666041369
8.64,0.191591312881924,-0.188150373603555,-0.142627165406852
8.645,0.182619431628265,-0.193460553342913,-0.144315664772334
8.65,0.173647550374603,-0.198770733082274,-0.146004164137816
8.655,0.164675669120945,-0.204080912821632,-0.147692663503298
8.66,-0.714854899407841,-0.611342354069644,-0.243671569987786
8.665,-0.55336628717868,-0.735209285224042,-0.232074302140837
8.67,-0.510845480807686,-0.777956781078552,-0.164056840953704
8.675,-0.613257358829435,-0.77340829839248,-0.207872803514088
8.68,-0.591248252829359,-0.752610122892202,-0.230389576828725
8.685,-0.506379559564093,-0.745133683288602,-0.151113569913577
8.69,-0.381309681608417,-0.697586737540643,-0.0857976381546562
8.695,-0.314942084687237,-0.708582223905812,-0.0625934275008873
8.7,-0.127707161170164,-0.706449289672882,-0.0448014483451716
8.705,-0.0214435203302923,-0.639906185317022,-0.0373090131516498
8.71,0.0160304995515518,-0.575923625598957,0.0101738094316332
8.715,-0.0215575935449564,-0.480599604586678,0.0601611145482272
8.72,-0.112940036280984,-0.356135513160525,0.0912461424780966
8.725,-0.166296118673224,-0.301775183412999,0.102438560113868
8.73,-0.218286944015853,-0.196111180267777,0.111356429621682
8.735,-0.216715843083929,-0.164397200248293,0.1166730237762
8.74,-0.210071025198916,-0.147672222969248,0.11797375808282
8.745,-0.126395890694035,0.0314265706350328,0.148049188348249
8.75,-0.124657939884362,0.0818280629406861,0.153926807132769
8.755,-0.1327093697627,0.118234395923434,0.160929623090489
8.76,-0.127718937394728,0.146355373999898,0.177219293098709
8.765,-0.105598390608586,0.164373957890912,0.197390778810349
8.77,-0.057054796827413,0.15350782511613,0.203949658804378
8.775,-0.00502215936090473,0.1420950821624,0.204975610787478
8.78,0.0152113384182118,0.136705258189624,0.202561005987411
8.785,0.0821363099579019,0.0988041329476058,0.21602862051687
8.79,0.0945051685899965,0.0860287613756083,0.225382161398817
8.795,0.0926091553496018,0.0715550619211232,0.23169329284509
8.8,0.0881856292522094,0.0625395762927978,0.227178435681069
8.805,0.0755505659180317,0.0519499636617163,0.209832798837407
8.81,0.0512097115461884,0.0530472285971413,0.20130394867536
8.815,0.0349541768596077,0.0531191520184185,0.20025579576011
8.82,-0.008987825988234,0.0398512721912074,0.201426201488824
8.825,-0.0201145069697189,0.0250947928923302,0.209351488137523
8.83,-0.0217260136708956,0.00641812057332046,0.210318872815684
8.835,-0.0268537271061334,-0.00313893863733673,0.210383063501684
8.84,-0.0397799706325071,-0.00819504990780507,0.215007743448931
8.845,-0.0475922670269996,-0.0108622683358548,0.204864050975752
8.85,-0.0499860671050761,-0.0128387379727537,0.203151204749048
8.855,-0.0523798671831535,-0.0148152076096533,0.201438358522343
8.86,-0.0576735732587575,-0.0161084329566855,0.207321956159858
8.865,-0.0623518102343269,0.00330251778243057,0.201554299982718
8.87,-0.0526121032400265,0.0256338344093843,0.209458939703985
8.875,-0.0375960714647803,0.0408441043447899,0.205151453480867
8.88,0.00728114790032306,0.0567392707672643,0.198388442196312
8.885,0.0451672708671359,0.0665978809622939,0.202562924890358
8.89,0.0872933575598421,0.0684822442227574,0.207974127547919
8.895,0.106172283406905,0.0698384393094146,0.210815703138952
8.9,0.137158357288197,0.0670100938658025,0.202698841777598
8.905,0.158457546997717,0.0770773528325215,0.190787285382404
8.91,0.138124017407981,0.075537882978262,0.190445008207475
8.915,0.00416956107453017,0.0346745009407009,0.189706858292676
8.92,-0.244049996750128,-0.0243604700598908,0.132599023482022
8.925,-0.34549755978448,-0.0565225155013259,0.0975250623362007
8.93,-0.410610676363911,-0.109159231871084,0.0988577707300741
8.935,-0.393560610297582,-0.109081398388655,0.0822349854045249
8.94,-0.37813143983432,-0.0989151620863835,0.0759933816315067
8.945,-0.114888247545825,0.163936078747385,0.0728589059649784
8.95,0.0533230000475823,0.319374525306085,0.0566727655773768
8.955,0.103692822157774,0.396441977802049,0.0819701919513771
8.96,0.125335815003974,0.401737669218574,0.0753613696865577
8.965,0.0519229788174215,0.206910879331229,0.0371690593591531
8.97,0.0154486381682009,0.120520156228941,0.0336612112851573
8.975,0.129953099771992,0.0731810827468969,0.0873172391016585
8.98,0.223343024046602,0.0311906750078139,0.0779564371164355
8.985,0.221505970854838,0.0234846995454736,0.0545990380807052
8.99,0.206978085706958,0.0305346579126135,0.0606463080903253
8.995,0.152779905064308,-0.00486114684971009,0.0603242228680576
9,0.128355823587671,-0.0260638260742628,0.0371507218272328
9.005,0.103956614619223,-0.0165897587329613,0.00993568036864258
9.01,0.0774494397151003,-0.0318631009848954,-0.0264546904348518
9.015,0.0753137653979788,-0.0553005793722694,-0.0431155041870538
9.02,0.0948493547073752,-0.0442315793386531,-0.0493583484701792
9.025,0.121495628064759,-0.020092409019687,-0.0579383776216823
9.03,0.126010712345517,-0.0172477319151205,-0.059401251127239
9.035,0.129194654584216,-0.0152547750305531,-0.060701317308666
9.04,0.145704092708893,0.0207918831736408,-0.076442053678666
9.045,0.148776410289105,0.0360042299859777,-0.0893289211839216
9.05,0.148249215904779,0.0378130455278174,-0.0940758782941254
9.055,0.138105570239149,0.0384169458196936,-0.0874815070611798
9.06,0.136273508092252,0.0487423678521552,-0.0943293169233234
9.065,0.140143214131578,0.0538655787083598,-0.0984564222230446
9.07,0.140408650314387,0.0542724320096896,-0.0928300028662536
9.075,0.136880065121775,0.057551874464509,-0.0844132997458058
9.08,0.124049536038034,0.0606199641852944,-0.078566907096825
9.085,0.113637978086642,0.0603419958874498,-0.0737736394447869
9.09,0.109075819013473,0.0503670973888993,-0.0672795384154357
9.095,0.112166055424738,0.0505039521658168,-0.0588926857582585
9.1,0.103201354466499,0.0504401908107593,-0.054910334814561
9.105,0.0840901952954006,0.0421231229536455,-0.037573125728096
9.11,0.100358327448372,0.0431742337473078,-0.0399328044703754
9.115,0.130088377499536,0.0569310891911658,-0.0177084009820929
9.12,0.140011237631327,0.0686130280398199,-0.00435470542323135
9.125,0.156899788908006,0.072508568825742,-0.00283980376218901
9.13,0.142342780674847,0.0634531293988602,-0.00611584803876243
9.135,0.112263071322987,0.0603760108916477,-0.00669975252505871
9.14,0.0732493379297177,0.05556132607448,-0.00630092743497823
9.145,0.0661116899407515,0.0416055883137859,-0.00402983039627627
9.15,0.0679385021380883,0.0387592689173828,-0.00565153163503474
9.155,0.0701777463328351,0.0500547712838796,-0.00581118166440566
9.16,0.0894749137148393,0.0435051481552107,-0.0146936992833444
9.165,0.102241680191032,0.0452850733180723,-0.0184382573484648
9.17,0.108279130556801,0.059693902589531,-0.0239182643289302
9.175,0.0773336639762325,0.0767930645216208,-0.0298948769009733
9.18,0.0529653156861974,0.0918176458215174,-0.0280850882497318
9.185,0.0657124986561356,0.113837606442392,-0.0442268385991375
9.19,0.0615967539441107,0.128305038018607,-0.0502793933272765
9.195,0.0291828844165151,0.134430533620858,-0.040175352285021
9.2,0.0125731859721206,0.140860928624216,-0.0298714120784368
9.205,0.0170494045689169,0.172040261961835,-0.0449860247211196
9.21,0.018561430307944,0.173076053629115,-0.0488036342692434
9.215,0.0200734560469705,0.174111845296394,-0.0526212438173658
9.22,0.0215854817859975,0.175147636963674,-0.0564388533654896
9.225,0.34421301362808,0.00302814896488117,-0.000977859879243708
9.23,0.277416896472747,-0.0535473880595233,0.0114767465358103
9.235,0.213223912433778,-0.100541119343757,0.00641542297779262
9.24,0.118742023690879,-0.0946049377543628,-0.0296064535340168
9.245,-0.00278785893812655,-0.0208832771229939,-0.0362169467145112
9.25,-0.177452005752909,0.0727432354890715,-0.0624715585819412
9.255,-0.566508043664739,0.0590450120237094,-0.151949851955581
9.26,-0.584177136610875,0.0242322289649224,-0.14391516293439
9.265,-0.601492865558429,-0.010395300738511,-0.135746021433527
